# Start timestamp: 1663250316241
# Start time: 15.09.2022 15:58:36.241
# Duration: 00:04.990
# Sensor insoles: Left SN5392, Right SN6181
# Size: 3
# Recording type: live
# Name: walking
# Notes: 
# Tag: 
# time	left pressure 1[N/cm²]	left pressure 2[N/cm²]	left pressure 3[N/cm²]	left pressure 4[N/cm²]	left pressure 5[N/cm²]	left pressure 6[N/cm²]	left pressure 7[N/cm²]	left pressure 8[N/cm²]	left pressure 9[N/cm²]	left pressure 10[N/cm²]	left pressure 11[N/cm²]	left pressure 12[N/cm²]	left pressure 13[N/cm²]	left pressure 14[N/cm²]	left pressure 15[N/cm²]	left pressure 16[N/cm²]	left acceleration X[g]	left acceleration Y[g]	left acceleration Z[g]	left angular X[dps]	left angular Y[dps]	left angular Z[dps]	left total force[N]	left center of pressure X[-0.5...+0.5]	left center of pressure Y[-0.5...+0.5]	right pressure 1[N/cm²]	right pressure 2[N/cm²]	right pressure 3[N/cm²]	right pressure 4[N/cm²]	right pressure 5[N/cm²]	right pressure 6[N/cm²]	right pressure 7[N/cm²]	right pressure 8[N/cm²]	right pressure 9[N/cm²]	right pressure 10[N/cm²]	right pressure 11[N/cm²]	right pressure 12[N/cm²]	right pressure 13[N/cm²]	right pressure 14[N/cm²]	right pressure 15[N/cm²]	right pressure 16[N/cm²]	right acceleration X[g]	right acceleration Y[g]	right acceleration Z[g]	right angular X[dps]	right angular Y[dps]	right angular Z[dps]	right total force[N]	right center of pressure X[-0.5...+0.5]	right center of pressure Y[-0.5...+0.5]	Right Events label[]	Right Events[]	Left Events label[]	Left Events[]	left COP velocity[1]	right COP velocity[1]
0.01	0.00	0.00	0.00	0.00	0.00	0.00	0.25	0.00	0.00	0.75	0.25	0.00	0.00	0.00	0.00	0.00	-0.727051	0.122070	1.483887	-57.470001	-359.450012	-4.200000	12.00	0.000000	0.000000	2.50	3.50	2.50	3.00	5.00	3.25	0.50	2.25	7.00	9.75	6.75	5.50	3.75	4.50	1.00	2.50	-0.259766	0.002930	0.988281	-1.190000	13.790000	-3.640000	560.00	0.080584	-0.048619					0.000000	0.000000
0.02	0.00	0.00	0.00	0.00	0.00	0.00	0.25	0.00	0.00	0.75	0.50	0.00	0.00	0.00	0.00	0.00	-0.764648	0.102051	1.593262	-54.180000	-360.010010	-12.530000	14.00	0.000000	0.000000	2.25	3.00	2.25	2.50	4.50	2.75	0.50	2.00	7.50	10.00	7.25	5.50	3.75	5.00	1.00	2.50	-0.252441	-0.002441	0.988770	-0.070000	14.490000	-3.850000	550.00	0.100399	-0.040011					0.000000	2.160409
0.03	0.00	0.00	0.25	0.00	0.00	0.00	0.25	0.00	0.00	0.75	0.00	0.00	0.00	0.00	0.00	0.00	-0.795898	0.083984	1.699219	-53.340000	-360.920013	-19.670000	12.00	0.000000	0.000000	1.75	2.25	1.75	2.00	4.00	2.25	0.50	2.00	7.75	10.50	7.75	5.75	4.00	5.25	1.00	3.00	-0.259766	-0.001465	0.990723	0.980000	15.330000	-3.920000	541.00	0.126178	-0.039408					0.000000	2.578577
0.04	0.00	0.00	0.00	0.00	0.00	0.00	0.25	0.00	0.00	1.00	0.25	0.00	0.00	0.00	0.00	0.00	-0.807129	0.101074	1.786133	-51.869999	-360.850006	-24.920000	14.00	0.000000	0.000000	1.50	2.00	1.50	2.00	3.50	2.25	0.50	2.00	8.00	11.50	8.50	6.25	4.00	5.50	1.25	3.00	-0.259277	-0.003906	0.997559	1.260000	16.309999	-4.270000	556.00	0.140132	-0.040169					0.000000	1.397514
0.05	0.00	0.00	0.25	0.00	0.00	0.00	0.25	0.00	0.00	0.75	0.25	0.00	0.00	0.00	0.00	0.00	-0.845215	0.128906	1.908203	-49.349998	-359.940002	-27.930000	14.00	0.000000	0.000000	1.50	2.00	1.25	1.75	3.00	1.75	0.25	2.00	8.00	12.50	9.25	6.50	4.00	5.50	1.25	2.75	-0.272461	-0.009277	0.981934	1.330000	17.360001	-5.250000	556.00	0.150938	-0.040234					0.000000	1.080601
0.06	0.25	0.00	0.25	0.00	0.00	0.00	0.25	0.00	0.00	1.00	0.25	0.00	0.00	0.00	0.00	0.00	-0.936035	0.183594	2.199707	-43.610001	-358.470001	-25.200001	19.00	0.000000	0.000000	1.25	1.50	1.25	1.50	2.50	1.75	0.25	1.75	8.50	13.00	10.25	7.00	4.50	5.75	1.25	3.00	-0.259277	0.000488	0.982910	1.120000	17.990000	-5.810000	569.00	0.166443	-0.039969					0.000000	1.550753
0.07	0.00	0.00	0.25	0.00	0.00	0.00	0.25	0.00	0.00	1.00	0.25	0.00	0.00	0.00	0.00	0.00	-1.030762	0.202148	2.352051	-40.670002	-358.399994	-20.930000	16.00	0.000000	0.000000	1.25	1.25	1.00	1.00	2.00	1.75	0.25	1.75	8.75	13.75	11.50	7.25	4.50	6.50	1.25	3.50	-0.261719	0.005371	0.969727	3.080000	19.180000	-7.420000	586.00	0.181449	-0.038250					0.000000	1.510424
0.08	0.00	0.00	0.25	0.00	0.00	0.00	0.25	0.00	0.00	0.75	0.00	0.00	0.00	0.00	0.00	0.00	-1.144043	0.202148	2.498535	-38.430000	-361.200012	-16.450001	12.00	0.000000	0.000000	1.00	1.25	0.75	1.00	2.00	1.50	0.25	1.75	9.50	14.00	12.50	7.50	4.50	6.75	1.25	4.25	-0.265625	0.021973	1.001953	5.460000	20.860001	-8.680000	606.00	0.190176	-0.036768					0.000000	0.885171
0.09	0.25	0.00	0.25	0.00	0.00	0.00	0.25	0.00	0.00	0.50	0.25	0.00	0.00	0.00	0.00	0.00	-1.401855	0.219238	2.609375	-35.560001	-367.220001	-13.790000	14.00	0.000000	0.000000	0.75	1.00	0.75	1.00	1.75	1.50	0.25	1.75	10.25	14.50	13.25	8.25	5.00	7.00	1.50	4.25	-0.276367	0.013672	0.998047	8.540000	24.570000	-9.730000	633.00	0.198222	-0.038047					0.000000	0.814772
0.10	0.00	0.00	0.00	0.00	0.00	0.00	0.25	0.00	0.00	0.50	0.25	0.00	0.00	0.00	0.00	0.00	-1.652344	0.208984	2.570312	-30.100000	-373.309998	-14.140000	10.00	0.000000	0.000000	0.75	0.75	0.50	1.00	1.25	1.25	0.25	1.75	10.75	15.00	13.50	9.00	5.00	7.75	1.75	4.25	-0.268555	-0.014648	1.013672	9.800000	30.940001	-7.980000	648.00	0.208699	-0.035942					0.000000	1.068617
0.11	0.00	0.00	0.00	0.00	0.00	0.00	0.25	0.00	0.00	0.75	0.25	0.00	0.00	0.00	0.00	0.00	-1.906250	0.199219	2.360840	-23.590000	-374.010010	-17.360001	12.00	0.000000	0.000000	0.50	1.00	0.50	0.75	1.25	1.00	0.00	1.75	12.25	15.50	14.25	9.75	5.50	7.75	1.50	4.50	-0.295898	0.006836	1.000977	11.970000	37.099998	-6.090000	677.00	0.213288	-0.034432					0.000000	0.483130
0.12	0.00	0.00	0.00	0.00	0.00	0.00	0.25	0.00	0.00	0.75	0.25	0.00	0.00	0.00	0.00	0.00	-2.129883	0.222656	2.009277	-21.000000	-367.010010	-22.330000	12.00	0.000000	0.000000	0.50	1.00	0.50	0.50	1.25	1.00	0.00	1.75	13.00	15.75	14.50	10.75	5.50	8.50	1.50	4.50	-0.292969	-0.008301	1.013672	14.910000	42.700001	-4.760000	701.00	0.217006	-0.031808					0.000000	0.455017
0.13	0.00	0.00	0.25	0.00	0.00	0.00	0.25	0.00	0.00	0.75	0.25	0.00	0.00	0.25	0.00	0.00	-2.347656	0.309570	1.604004	-26.670000	-346.149994	-30.240000	16.00	0.000000	0.000000	0.25	0.50	0.50	0.50	1.00	1.00	0.00	1.75	13.25	16.50	15.00	11.50	6.00	9.25	1.75	5.50	-0.297363	-0.000977	1.012695	18.620001	49.840000	-3.570000	729.00	0.226274	-0.035254					0.000000	0.988764
0.14	0.00	0.00	0.25	0.25	0.00	0.00	0.25	0.00	0.00	0.75	0.25	0.00	0.00	0.00	0.00	0.00	-2.643066	0.433105	1.188477	-32.689999	-316.190002	-41.020000	17.00	0.000000	0.000000	0.25	1.00	0.50	0.50	1.00	0.75	0.00	1.75	13.75	16.75	15.75	12.50	6.00	10.00	2.50	5.75	-0.311523	0.015625	1.030762	22.750000	58.799999	-2.380000	767.00	0.227282	-0.035737					0.000000	0.111783
0.15	0.25	0.00	0.25	0.00	0.00	0.00	0.50	0.00	0.00	0.75	0.25	0.00	0.00	0.00	0.00	0.00	-2.999023	0.559082	0.652344	-24.500000	-284.269989	-55.650002	20.00	0.000000	0.000000	0.25	1.00	0.25	0.00	0.75	0.50	0.00	1.50	13.75	17.50	16.25	13.00	6.00	11.00	2.75	6.00	-0.339355	0.035156	1.028320	26.180000	69.860001	-1.820000	778.00	0.237335	-0.032803					0.000000	1.047225
0.16	0.00	0.00	0.00	0.00	0.00	0.00	0.50	0.00	0.00	0.75	0.25	0.00	0.00	0.00	0.00	0.00	-3.578613	0.570312	0.019043	13.370000	-251.229996	-67.480003	15.00	0.000000	0.000000	0.25	0.50	0.00	0.00	0.75	0.75	0.00	1.50	14.00	17.75	16.50	13.50	6.00	12.25	2.75	6.75	-0.346680	0.043457	1.030762	29.330000	80.919998	-2.240000	798.00	0.243220	-0.032417					0.000000	0.589747
0.17	0.00	0.00	0.00	0.00	0.00	0.00	0.25	0.00	0.00	0.75	0.25	0.00	0.00	0.00	0.00	0.00	-4.200195	0.442383	-0.668945	59.220001	-209.229996	-65.800003	12.00	0.000000	0.000000	0.25	0.25	0.00	0.50	0.50	0.75	0.00	1.25	14.00	18.00	16.50	13.75	6.00	13.00	2.75	7.00	-0.367188	0.036133	1.032715	34.090000	92.120003	-2.660000	806.00	0.245020	-0.031506					0.000000	0.201752
0.18	0.00	0.00	0.00	0.00	0.00	0.00	0.25	0.00	0.00	0.75	0.50	0.00	0.00	0.00	0.00	0.00	-4.326172	0.271973	-1.092285	74.199997	-144.339996	-46.480000	14.00	0.000000	0.000000	0.50	0.25	0.00	0.25	0.50	0.75	0.00	1.25	14.50	18.25	16.75	13.75	6.00	14.00	3.00	7.50	-0.391113	0.030273	1.070312	37.660000	104.160004	-3.010000	828.00	0.247019	-0.027657					0.000000	0.433717
0.19	0.00	0.00	0.25	0.00	0.00	0.00	0.25	0.00	0.00	1.00	0.25	0.00	0.00	0.00	0.00	0.00	-3.740234	0.187012	-1.018066	62.020000	-56.000000	-17.990000	16.00	0.000000	0.000000	0.25	0.50	0.00	0.00	0.25	0.50	0.00	1.25	14.50	18.50	17.25	14.00	6.25	14.75	3.25	8.00	-0.400879	0.036621	1.059082	33.670002	116.760002	-3.570000	841.00	0.252121	-0.028853					0.000000	0.524005
0.20	0.00	0.00	0.25	0.00	0.00	0.00	0.25	0.00	0.00	0.50	0.25	0.00	0.00	0.00	0.00	0.00	-2.232422	0.252930	0.387207	44.310001	81.970001	26.530001	12.00	0.000000	0.000000	0.25	0.25	0.00	0.00	0.00	0.25	0.00	1.25	14.50	18.50	17.25	14.25	6.00	15.25	3.50	8.50	-0.435547	0.079102	1.094727	29.049999	131.809998	-4.900000	843.00	0.257212	-0.027921					0.000000	0.517514
0.21	0.25	0.00	0.25	0.00	0.25	0.00	0.25	0.00	0.00	0.50	0.00	0.00	0.00	0.00	0.00	0.00	-2.232422	0.252930	0.387207	44.310001	81.970001	26.530001	14.00	0.000000	0.000000	0.00	0.25	0.00	0.00	0.00	0.25	0.00	1.25	14.25	18.25	17.25	14.00	5.50	15.75	4.50	9.00	-0.484863	0.087891	1.107910	26.740000	149.029999	-7.210000	845.00	0.261980	-0.027376			Event	1.00	0.000000	0.479882
0.22	0.75	0.50	0.50	0.50	0.25	0.00	0.25	0.00	0.00	0.00	0.00	0.00	0.00	0.00	0.00	0.00	-4.263672	0.102539	1.936035	59.920002	208.669998	69.090004	25.00	0.000000	0.000000	0.00	0.25	0.00	0.00	0.00	0.25	0.00	1.00	14.25	18.25	17.25	14.00	5.50	16.25	4.50	9.50	-0.511230	0.058594	1.124023	19.879999	188.160004	-12.670000	847.00	0.263910	-0.025917					0.000000	0.241917
0.23	4.00	3.00	2.50	1.25	0.50	0.00	0.25	0.00	0.00	0.00	0.00	0.00	0.00	0.00	0.00	0.00	-0.622070	-0.354980	-0.289062	4.760000	270.059998	63.840000	100.00	-0.332921	0.005019	0.00	0.00	0.00	0.00	0.00	0.00	0.00	1.00	14.00	18.00	17.00	13.75	5.50	16.25	5.00	9.75	-0.361816	0.093262	1.210938	18.410000	216.089996	-16.799999	840.00	0.267822	-0.025883					0.000000	0.391221
0.24	11.25	8.25	5.50	4.00	0.75	0.00	0.25	0.00	0.00	0.00	0.00	0.00	0.00	0.00	0.00	0.00	-0.449707	-0.814453	0.491699	82.040001	185.639999	56.490002	259.00	-0.349510	-0.009269	0.00	0.00	0.00	0.00	0.00	0.25	0.00	0.75	13.75	17.75	16.75	13.75	5.25	16.25	5.25	9.50	-0.629883	0.132324	1.195312	14.350000	233.800003	-19.110001	831.00	0.268426	-0.024938					2.432657	0.112189
0.25	18.75	16.50	7.25	6.50	0.75	0.00	0.25	0.00	0.00	0.00	0.00	0.00	0.00	0.00	0.00	0.00	-0.971191	-1.647949	1.039062	46.689999	265.230011	-22.960001	427.00	-0.361160	-0.022432	0.00	0.00	0.00	0.00	0.00	0.25	0.00	0.75	13.50	17.25	16.50	13.50	5.00	16.00	5.25	9.75	-0.919922	0.228027	1.319336	16.240000	258.929993	-25.129999	817.00	0.268927	-0.025307					1.597947	0.062227
0.26	24.25	21.50	9.00	8.50	0.75	0.00	0.25	0.00	0.00	0.00	0.00	0.00	0.00	0.00	0.00	0.00	-0.617188	-0.288574	2.153320	47.389999	314.160004	-80.430000	548.00	-0.363414	-0.024554	0.00	0.00	0.00	0.00	0.00	0.25	0.00	0.50	13.25	17.00	16.00	13.25	4.75	15.50	5.25	9.75	-0.862793	0.250000	1.241211	11.830000	292.250000	-35.420002	797.00	0.270158	-0.023778					0.309658	0.196295
0.27	27.50	25.00	11.50	11.00	1.25	0.00	0.25	0.00	0.00	0.00	0.00	0.00	0.00	0.00	0.00	0.00	-0.794922	0.370117	2.000488	74.059998	287.279999	-86.379997	654.00	-0.359495	-0.027002	0.00	0.00	0.00	0.00	0.00	0.00	0.00	0.50	13.00	16.75	15.75	13.00	4.25	14.75	5.25	8.75	-0.745605	0.014160	1.111816	12.740000	334.320007	-44.099998	771.00	0.270796	-0.020905					0.462101	0.294325
0.28	28.75	27.25	13.50	13.25	2.50	0.00	0.25	0.00	0.00	0.00	0.00	0.00	0.00	0.00	0.00	0.00	-0.628906	1.278809	2.280273	38.009998	275.869995	-74.269997	733.00	-0.353396	-0.029509	0.00	0.00	0.00	0.00	0.00	0.00	0.00	0.50	11.75	16.25	15.25	11.50	3.75	14.00	5.00	8.00	-0.771484	0.087891	1.667969	-7.910000	363.510010	-53.619999	721.00	0.271315	-0.019044					0.659355	0.193183
0.29	28.25	26.25	14.50	14.50	3.75	0.50	0.25	0.00	0.00	0.00	0.00	0.00	0.00	0.00	0.00	0.00	-0.812988	1.026855	2.942871	-1.470000	258.440002	-34.860001	757.00	-0.345716	-0.030491	0.00	0.00	0.00	0.00	0.00	0.00	0.00	0.25	10.25	15.50	14.50	10.00	3.25	12.50	5.00	7.25	-0.967773	0.078125	1.799805	-28.139999	387.660004	-63.420002	657.00	0.272913	-0.018052					0.774271	0.188035
0.30	26.50	24.50	15.00	15.00	4.75	1.00	0.50	0.00	0.00	0.00	0.00	0.00	0.00	0.00	0.00	0.00	-0.557617	-0.318359	2.151855	-13.790000	211.399994	-10.850000	755.00	-0.336781	-0.030494	0.00	0.00	0.00	0.00	0.00	0.00	0.00	0.00	8.75	14.75	13.75	8.75	2.75	10.00	4.00	6.50	-1.140625	0.627930	2.272461	-26.950001	404.110016	-64.540001	579.00	0.270852	-0.019318					0.893483	0.241880
0.31	24.25	22.75	14.75	15.00	5.50	2.00	0.50	0.00	0.00	0.00	0.00	0.00	0.00	0.00	0.00	0.00	-0.176758	-0.424805	1.121094	12.180000	172.550003	-26.110001	736.00	-0.329515	-0.034223	0.00	0.00	0.00	0.00	0.00	0.00	0.00	0.00	8.00	14.00	13.00	7.25	2.00	8.00	3.00	5.75	-1.073730	0.216797	2.186035	6.720000	427.279999	-73.989998	513.00	0.267852	-0.014393					0.816754	0.576667
0.32	22.50	21.00	14.50	14.75	6.25	3.75	0.50	0.25	0.00	0.00	0.00	0.00	0.00	0.00	0.00	0.00	-0.127930	0.257324	0.737793	53.619999	169.330002	-38.009998	728.00	-0.319509	-0.040433	0.00	0.00	0.00	0.00	0.00	0.00	0.00	0.00	7.00	13.00	10.50	6.00	1.50	6.75	2.25	4.75	-1.396484	0.379883	2.390137	19.460001	426.720001	-75.529999	436.00	0.267085	-0.006982					1.177598	0.745019
0.33	20.75	19.50	14.00	15.00	7.50	5.50	0.75	0.50	0.00	0.00	0.00	0.00	0.00	0.00	0.00	0.00	-0.583008	1.115234	2.258789	16.590000	155.889999	-35.770000	733.00	-0.306731	-0.046686	0.00	0.00	0.00	0.00	0.00	0.00	0.00	0.00	6.25	10.25	8.25	5.25	1.25	5.25	2.50	3.50	-0.949707	0.308594	2.632812	45.779999	415.380005	-73.989998	362.00	0.267985	-0.005612					1.422674	0.163957
0.34	19.00	18.25	13.75	14.75	8.00	6.25	0.75	1.25	0.00	0.00	0.00	0.50	0.00	0.00	0.00	0.00	-0.423340	0.395996	1.305176	-34.720001	114.309998	-12.320000	729.00	-0.293896	-0.055678	0.00	0.00	0.00	0.00	0.00	0.00	0.00	0.00	5.50	7.75	6.25	4.00	1.00	3.50	2.00	3.00	-1.031738	0.492676	1.771973	76.019997	405.510010	-74.199997	282.00	0.266693	-0.002383					1.567139	0.347771
0.35	17.75	16.75	13.50	14.50	8.75	7.25	0.75	2.00	0.00	0.25	0.25	0.50	0.25	0.25	0.00	0.00	-0.095703	-0.160645	1.136230	-59.779999	101.220001	-10.850000	736.00	-0.277482	-0.062517	0.00	0.00	0.00	0.00	0.00	0.00	0.00	0.00	4.75	6.00	4.75	2.75	0.50	2.00	1.25	2.00	-0.285645	0.536133	1.656738	112.279999	438.200012	-84.840004	209.00	0.262376	0.012764					1.778160	1.575067
0.36	16.50	15.50	13.25	14.25	9.50	8.25	0.75	3.00	0.00	0.75	0.50	0.75	0.75	0.50	0.25	0.00	-0.379883	0.243164	1.308105	-66.919998	70.139999	-15.260000	756.00	-0.254878	-0.072109	0.00	0.00	0.00	0.00	0.00	0.00	0.00	0.00	2.75	4.75	3.50	1.50	0.00	1.25	0.75	1.25	0.110352	0.538574	2.211426	109.480003	435.959991	-137.059998	137.00	0.261905	0.019568					2.455445	0.620049
0.37	15.50	14.75	13.00	14.00	10.00	8.75	1.00	3.75	0.00	1.25	0.75	1.00	1.00	0.75	0.25	0.25	-0.225098	0.151367	1.145996	-68.809998	49.279999	-11.410000	772.00	-0.237154	-0.077202	0.00	0.00	0.00	0.00	0.00	0.00	0.00	0.00	1.25	3.25	2.50	1.00	0.00	1.00	0.25	0.75	-0.222656	1.089844	2.306152	71.400002	399.489990	-134.470001	86.00	0.259430	0.004939					1.844137	1.648602
0.38	15.00	13.75	13.00	13.75	10.75	9.25	1.00	4.50	0.00	2.00	1.00	0.75	1.25	1.00	0.25	0.25	-0.202148	0.135254	1.078613	-68.040001	41.580002	-10.780000	789.00	-0.223749	-0.079291	0.00	0.25	0.00	0.00	0.00	0.00	0.00	0.00	0.00	2.50	2.25	1.00	0.25	0.75	0.00	0.50	0.728516	1.045898	3.851562	19.180000	264.880005	-89.879997	62.00	0.227963	-0.071883					1.356696	8.301678
0.39	14.00	12.50	12.25	13.25	10.75	9.00	1.00	5.00	0.25	2.75	1.50	1.00	1.50	1.25	0.25	0.25	-0.226562	0.116211	1.043945	-59.709999	32.130001	-8.470000	783.00	-0.205462	-0.081630	0.00	0.25	0.00	0.00	0.00	0.00	0.00	0.00	0.00	2.50	2.00	1.00	0.00	0.75	0.00	0.50	1.000000	0.969727	3.097656	-58.590000	86.660004	-27.930000	58.00	0.229883	-0.057827					1.843616	1.289658
0.40	13.00	11.25	12.00	13.00	10.25	9.00	1.00	5.25	0.50	2.75	1.50	1.00	3.00	1.00	0.25	0.25	-0.192383	0.061035	1.063477	-39.340000	20.440001	-5.390000	770.00	-0.194289	-0.089711	0.00	0.00	0.00	0.00	0.00	0.00	0.00	0.00	0.00	2.00	1.75	0.75	0.00	0.50	0.00	0.25	0.841797	0.811035	2.502930	-126.489998	-64.680000	30.730000	44.00	0.000000	0.000000					1.378891	0.000000
0.41	11.25	9.75	11.25	12.25	10.00	8.75	1.00	5.25	0.50	2.75	1.50	1.50	3.25	1.25	0.50	0.25	-0.223633	0.100098	1.036621	-18.830000	15.750000	-3.780000	735.00	-0.178662	-0.094441	0.00	0.25	0.00	0.00	0.00	0.00	0.00	0.00	0.00	2.00	1.75	0.50	0.00	0.00	0.00	0.00	0.701660	0.679688	1.771484	-164.009995	-160.720001	69.650002	39.00	0.000000	0.000000					1.632795	0.000000
0.42	9.25	8.50	10.25	11.50	9.50	8.25	1.00	5.50	0.75	2.75	2.25	2.00	3.75	1.25	0.50	0.50	-0.213867	0.102051	0.995117	-3.360000	19.250000	-1.820000	705.00	-0.156861	-0.103123	0.00	0.25	0.00	0.00	0.00	0.00	0.00	0.00	0.00	2.00	1.50	0.25	0.00	0.25	0.00	0.25	0.561523	0.577148	1.343262	-173.460007	-217.979996	86.169998	38.00	0.000000	0.000000					2.346577	0.000000
0.43	8.25	7.50	9.50	10.75	9.00	8.00	1.00	5.50	0.75	3.25	3.00	2.00	4.25	1.25	0.50	0.50	-0.177246	0.098145	0.998535	-1.540000	20.860001	-1.540000	682.00	-0.140616	-0.107379	0.00	0.00	0.00	0.00	0.00	0.00	0.00	0.00	0.00	2.00	1.25	0.25	0.00	0.00	0.00	0.25	0.420898	0.559082	1.144531	-158.059998	-256.059998	88.760002	32.00	0.000000	0.000000					1.679322	0.000000
0.44	7.25	6.50	8.75	9.75	8.25	7.50	1.00	5.75	0.75	3.25	3.00	2.25	4.50	1.50	0.50	0.50	-0.225098	0.113281	0.980957	-1.470000	21.139999	-1.680000	647.00	-0.126232	-0.112925	0.00	0.25	0.00	0.00	0.00	0.00	0.00	0.00	0.00	1.50	1.25	0.25	0.00	0.00	0.00	0.00	0.300781	0.483887	1.033691	-128.660004	-283.500000	84.629997	28.00	0.000000	0.000000					1.541560	0.000000
0.45	6.25	6.00	8.00	9.00	7.50	7.25	1.00	5.50	0.75	3.50	3.00	2.50	4.75	1.75	0.50	0.50	-0.219727	0.104492	0.980957	-2.100000	21.210001	-2.240000	617.00	-0.112705	-0.116901	0.25	0.25	0.00	0.00	0.00	0.00	0.00	0.00	0.00	1.75	1.25	0.00	0.00	0.00	0.00	0.00	0.178711	0.405762	0.974121	-97.930000	-304.429993	76.580002	30.00	0.000000	0.000000					1.409944	0.000000
0.46	5.25	5.50	7.50	8.25	7.25	6.75	1.00	5.50	0.75	3.50	3.00	2.50	5.00	1.75	0.50	0.50	-0.224121	0.102051	0.989746	-2.870000	21.070000	-2.730000	587.00	-0.101928	-0.120847	0.00	0.25	0.00	0.00	0.00	0.00	0.00	0.00	0.00	1.75	1.00	0.00	0.00	0.00	0.00	0.00	0.068848	0.348145	0.952637	-73.080002	-320.459991	66.220001	26.00	0.000000	0.000000					1.147654	0.000000
0.47	4.50	4.75	6.75	7.50	6.50	6.50	1.00	5.25	1.00	3.75	3.25	2.50	5.00	1.75	0.50	0.75	-0.219727	0.112305	0.990723	-3.430000	20.440001	-3.430000	557.00	-0.085483	-0.122213	0.00	0.25	0.00	0.00	0.00	0.00	0.00	0.00	0.00	1.50	1.00	0.00	0.00	0.00	0.00	0.00	-0.035156	0.327637	0.958496	-53.480000	-332.989990	54.320000	24.00	0.000000	0.000000					1.650221	0.000000
0.48	4.00	4.25	6.25	7.00	6.25	6.00	1.00	5.25	1.25	4.00	4.25	2.50	5.00	1.75	0.50	0.75	-0.222656	0.113281	0.984375	-4.830000	19.809999	-4.270000	547.00	-0.068671	-0.121368	0.25	0.25	0.00	0.00	0.00	0.00	0.00	0.00	0.00	1.25	0.75	0.00	0.00	0.00	0.00	0.00	-0.128418	0.303223	0.972656	-34.720001	-344.190002	43.049999	22.00	0.000000	0.000000					1.683286	0.000000
0.49	3.75	3.75	5.50	6.25	5.75	5.75	1.00	5.00	1.25	4.00	4.25	3.00	5.00	2.00	0.50	0.75	-0.226074	0.099609	0.992188	-5.810000	19.670000	-5.180000	523.00	-0.054697	-0.123201	0.00	0.25	0.00	0.00	0.00	0.00	0.00	0.00	0.00	1.25	0.75	0.00	0.00	0.00	0.00	0.00	-0.220215	0.281738	1.029785	-16.170000	-354.339996	33.740002	19.00	0.000000	0.000000					1.409382	0.000000
0.50	3.25	3.00	5.00	5.50	5.25	5.50	1.00	5.00	1.75	4.25	4.25	3.00	5.00	2.00	0.50	0.50	-0.227051	0.100098	0.989258	-6.230000	19.950001	-5.600000	501.00	-0.037520	-0.120715	0.25	0.25	0.00	0.00	0.00	0.00	0.00	0.00	0.00	1.25	0.75	0.00	0.00	0.00	0.00	0.00	-0.278809	0.215332	1.046875	-1.470000	-362.809998	27.020000	22.00	0.000000	0.000000					1.735613	0.000000
0.51	2.75	2.75	4.75	5.25	5.00	5.00	1.00	4.75	2.25	4.25	4.50	3.50	4.75	2.00	0.50	0.75	-0.232910	0.103027	0.986328	-6.020000	20.299999	-5.670000	491.00	-0.022437	-0.117082	0.25	0.50	0.00	0.00	0.00	0.00	0.00	0.00	0.25	1.50	0.25	0.00	0.00	0.00	0.00	0.00	-0.363281	0.131836	1.101562	15.190001	-372.890015	18.760000	24.00	0.000000	0.000000					1.551422	0.000000
0.52	2.50	2.50	4.25	4.75	4.50	4.75	0.75	4.50	2.25	4.25	4.50	3.25	4.75	2.50	0.50	0.75	-0.227051	0.095215	0.979980	-5.460000	20.440001	-6.090000	466.00	-0.010872	-0.117426	0.25	0.25	0.00	0.00	0.00	0.00	0.00	0.00	0.25	1.25	0.25	0.00	0.00	0.00	0.00	0.00	-0.422363	0.083008	1.125000	24.780001	-374.360016	15.750000	20.00	0.000000	0.000000					1.157025	0.000000
0.53	2.50	2.25	3.75	4.00	4.25	4.25	0.75	4.25	2.50	4.50	4.25	3.25	4.75	2.50	0.75	0.75	-0.238281	0.103027	0.976562	-5.320000	20.510000	-6.300000	448.00	0.003591	-0.111664	0.25	0.25	0.00	0.00	0.00	0.00	0.00	0.00	0.25	1.00	0.75	0.00	0.00	0.00	0.00	0.00	-0.481445	0.016602	1.138184	36.189999	-372.329987	13.440001	22.00	0.000000	0.000000					1.556845	0.000000
0.54	2.00	2.00	3.25	3.75	3.75	3.75	0.75	4.00	2.50	4.50	4.75	3.50	4.75	2.50	0.75	1.00	-0.227539	0.096191	0.976562	-5.180000	20.090000	-6.440000	430.00	0.021466	-0.114819	0.25	0.25	0.00	0.00	0.00	0.00	0.00	0.00	0.50	0.75	0.75	0.00	0.00	0.00	0.00	0.00	-0.541992	-0.041992	1.132324	45.220001	-364.910004	11.550000	23.00	0.000000	0.000000					1.815175	0.000000
0.55	1.75	1.75	2.75	3.00	3.50	3.50	0.75	3.75	2.25	4.50	4.75	3.50	4.50	2.75	0.75	0.75	-0.238770	0.098633	0.978027	-5.110000	19.460001	-7.000000	402.00	0.035054	-0.113388	0.25	0.25	0.00	0.00	0.00	0.00	0.00	0.00	0.75	0.75	0.75	0.00	0.00	0.00	0.00	0.00	-0.600586	-0.062988	1.193359	50.470001	-353.500000	9.310000	25.00	0.000000	0.000000					1.366306	0.000000
0.56	1.75	1.50	2.50	2.75	3.25	3.00	0.75	3.50	2.25	4.75	5.25	3.75	4.50	3.50	0.75	0.75	-0.011719	0.052734	0.953125	-6.020000	18.760000	-7.490000	400.00	0.053499	-0.106813	0.50	0.25	0.00	0.00	0.00	0.00	0.00	0.00	1.00	1.00	0.75	0.00	0.00	0.00	0.00	0.00	-0.652832	-0.083984	1.313477	54.040001	-341.459991	6.720000	32.00	0.000000	0.000000					1.958131	0.000000
0.57	1.50	1.25	2.25	2.50	3.00	2.75	0.75	3.25	2.75	4.75	5.25	3.50	4.50	3.75	0.75	1.25	-0.225586	0.240723	0.926758	-5.740000	18.200001	-3.990000	391.00	0.070449	-0.099401	0.25	0.50	0.00	0.00	0.00	0.00	0.00	0.00	1.00	1.00	0.50	0.00	0.00	0.00	0.00	0.00	-1.412109	-1.642578	1.214844	15.540000	-332.429993	34.020000	30.00	0.000000	0.000000					1.850011	0.000000
0.58	1.25	1.25	1.75	2.25	2.75	2.50	0.75	3.25	3.00	5.75	5.25	4.00	4.50	3.50	0.75	1.25	-0.185547	0.064453	0.949219	-6.930000	15.960000	-7.280000	391.00	0.086695	-0.099239	0.50	0.25	0.00	0.00	0.00	0.00	0.00	0.00	1.00	1.00	0.75	0.00	0.00	0.00	0.00	0.00	-0.968262	0.671875	0.533691	-11.970000	-323.890015	31.219999	32.00	0.000000	0.000000			Event	2.00	1.624673	0.000000
0.59	1.25	1.25	1.75	2.00	2.75	2.25	0.75	3.00	3.25	6.00	5.50	4.00	4.75	3.75	1.00	1.25	-0.265137	0.087891	0.967773	-7.560000	13.790000	-7.140000	396.00	0.097464	-0.092117	0.25	0.25	0.00	0.00	0.00	0.00	0.00	0.00	1.25	0.75	0.75	0.00	0.00	0.00	0.00	0.00	-0.612305	0.089355	1.536621	73.989998	-317.519989	28.770000	31.00	0.000000	0.000000					1.291061	0.000000
0.60	1.25	1.25	1.75	2.00	2.50	2.25	0.75	3.00	3.25	6.00	5.50	4.25	4.75	3.75	0.75	1.25	-0.242188	0.089844	0.973145	-7.770000	12.460000	-6.510000	394.00	0.097634	-0.094207	0.00	0.50	0.00	0.00	0.00	0.00	0.00	0.00	1.50	0.75	0.75	0.00	0.00	0.00	0.00	0.00	-0.786621	-0.226562	2.066895	116.270004	-317.660004	18.340000	33.00	0.000000	0.000000					0.209713	0.000000
0.61	1.25	0.75	1.50	2.00	2.50	2.00	0.75	2.75	3.75	6.75	6.00	4.50	4.75	4.75	1.00	1.50	-0.260254	0.090820	0.975098	-7.350000	10.640000	-5.110000	412.00	0.120951	-0.081006	0.00	0.25	0.00	0.00	0.00	0.00	0.00	0.00	1.25	0.75	0.50	0.00	0.00	0.00	0.00	0.00	-0.793945	-0.377441	2.143066	85.610001	-324.730011	6.510000	27.00	0.000000	0.000000					2.679493	0.000000
0.62	1.00	0.75	1.25	1.75	2.50	1.75	0.75	2.75	4.00	7.25	6.50	4.50	5.00	5.25	1.00	1.50	-0.233887	0.083496	0.970703	-6.440000	10.220000	-4.900000	419.00	0.135456	-0.077104	0.25	0.25	0.00	0.00	0.00	0.00	0.00	0.00	1.00	1.00	0.50	0.00	0.00	0.00	0.00	0.00	-0.831055	-0.109863	2.271973	39.060001	-342.089996	-0.980000	28.00	0.000000	0.000000					1.502035	0.000000
0.63	0.75	1.00	1.25	1.50	2.25	1.75	0.75	2.75	5.25	7.75	6.75	5.00	5.00	5.25	1.00	1.75	-0.241211	0.088867	0.966309	-6.160000	9.940000	-5.460000	440.00	0.145806	-0.069040	0.25	0.50	0.00	0.00	0.00	0.00	0.00	0.00	1.25	0.75	0.50	0.00	0.00	0.00	0.00	0.00	-0.874512	0.094727	2.245117	29.190001	-361.829987	-0.140000	31.00	0.000000	0.000000					1.312042	0.000000
0.64	0.75	1.00	1.25	1.25	2.00	1.75	0.75	2.75	5.25	8.25	7.25	5.00	5.00	5.50	1.00	1.75	-0.244629	0.079590	0.973145	-6.160000	9.940000	-5.880000	446.00	0.152212	-0.067084	0.25	0.50	0.00	0.00	0.00	0.00	0.00	0.00	1.00	0.50	0.50	0.00	0.00	0.00	0.00	0.00	-0.962402	0.100586	2.200195	47.180000	-375.200012	6.300000	26.00	0.000000	0.000000					0.669750	0.000000
0.65	1.00	0.75	1.00	1.25	2.00	1.50	0.75	2.75	5.25	8.75	7.75	5.50	5.50	5.50	1.25	1.75	-0.254883	0.085938	0.964355	-5.740000	10.360000	-6.230000	461.00	0.159028	-0.070251	0.25	0.25	0.25	0.00	0.00	0.00	0.00	0.00	1.25	0.75	0.50	0.00	0.00	0.00	0.00	0.00	-1.166016	0.014648	2.216309	61.670002	-374.220001	21.420000	31.00	0.000000	0.000000					0.751595	0.000000
0.66	0.75	0.75	1.00	1.25	2.00	1.50	0.75	2.75	5.50	9.00	9.00	5.50	5.75	6.25	1.25	2.25	-0.243652	0.091797	0.978027	-5.110000	12.460000	-7.140000	484.00	0.167781	-0.069418	0.50	0.25	0.00	0.00	0.00	0.00	0.00	0.00	1.00	1.00	0.50	0.00	0.00	0.00	0.00	0.00	-1.326172	-0.003418	2.228516	62.860001	-365.890015	29.540001	30.00	0.000000	0.000000					0.879255	0.000000
0.67	0.50	0.50	0.75	1.00	2.00	1.50	0.75	2.75	5.75	9.75	9.50	6.50	6.25	6.75	1.50	2.25	-0.241699	0.098633	0.983887	-3.990000	15.260000	-8.260000	508.00	0.181881	-0.071757	0.50	0.50	0.00	0.00	0.00	0.00	0.00	0.00	0.75	1.00	0.25	0.00	0.00	0.00	0.00	0.00	-1.542480	-0.065430	2.133789	68.320000	-356.929993	38.920002	27.00	0.000000	0.000000					1.429338	0.000000
0.68	0.50	0.50	0.75	1.00	1.75	1.25	0.50	2.75	6.25	10.50	10.00	7.00	6.50	7.00	1.50	2.75	-0.254883	0.090332	0.993164	-3.080000	18.760000	-9.030000	527.00	0.188882	-0.071911	0.25	0.75	0.00	0.00	0.00	0.00	0.00	0.00	1.00	0.50	0.00	0.00	0.00	0.00	0.00	0.00	-1.817871	-0.126953	1.936523	76.090004	-344.890015	49.840000	23.00	0.000000	0.000000					0.700227	0.000000
0.69	0.50	0.50	0.75	1.00	1.50	1.25	0.50	2.75	6.75	11.00	10.75	8.00	6.75	8.25	1.75	3.25	-0.256348	0.105469	0.985352	-0.700000	23.240000	-9.730000	565.00	0.196971	-0.070391	0.00	0.75	0.00	0.00	0.00	0.00	0.00	0.00	1.00	0.25	0.00	0.00	0.00	0.00	0.00	0.00	-2.147461	-0.219727	1.668945	82.599998	-325.920013	61.529999	19.00	0.000000	0.000000					0.823073	0.000000
0.70	0.50	0.50	0.50	1.00	1.25	1.25	0.50	2.75	7.00	11.75	11.50	8.50	7.25	9.00	2.00	3.50	-0.267090	0.083984	1.002441	3.640000	29.469999	-10.500000	593.00	0.204086	-0.071331	0.00	0.25	0.00	0.00	0.00	0.00	0.00	0.00	1.50	0.50	0.25	0.00	0.00	0.00	0.00	0.00	-2.537598	-0.311035	1.308594	80.010002	-299.390015	71.889999	25.00	0.000000	0.000000					0.717694	0.000000
0.71	0.25	0.25	0.25	0.75	1.25	1.00	0.50	2.75	7.75	12.50	12.00	9.00	7.50	10.00	2.25	4.00	-0.255371	0.085449	1.011719	7.700000	40.180000	-8.960000	619.00	0.217922	-0.066075	0.00	0.00	0.00	0.00	0.00	0.00	0.00	0.00	1.25	0.50	0.00	0.00	0.00	0.00	0.00	0.00	-2.995605	-0.282715	0.919434	48.369999	-269.500000	69.160004	18.00	0.000000	0.000000					1.480053	0.000000
0.72	0.25	0.25	0.25	0.50	1.00	1.00	0.50	2.50	8.50	13.50	12.75	9.50	7.50	11.25	2.50	4.50	-0.286133	0.103027	1.021973	14.560000	52.150002	-8.540000	653.00	0.226640	-0.057994	0.25	0.00	0.00	0.00	0.00	0.00	0.00	0.00	1.00	0.50	0.00	0.00	0.00	0.00	0.00	0.00	-3.579590	-0.034668	0.430664	-4.690000	-240.800003	46.130001	17.00	0.000000	0.000000					1.188749	0.000000
0.73	0.00	0.00	0.25	0.50	0.75	1.00	0.25	2.50	8.75	13.75	13.25	10.00	7.75	12.25	2.75	5.25	-0.284668	0.111328	1.041992	23.520000	66.150002	-8.470000	671.00	0.235562	-0.060237	0.25	0.00	0.00	0.00	0.00	0.00	0.00	0.00	0.75	0.25	0.25	0.00	0.00	0.00	0.00	0.00	-4.070312	0.193359	-0.281250	-21.980000	-205.520004	22.540001	15.00	0.000000	0.000000					0.919862	0.000000
0.74	0.25	0.00	0.25	0.25	0.75	1.00	0.25	2.25	8.75	14.25	13.75	10.50	7.50	13.50	3.25	5.75	-0.290527	0.165527	0.940430	32.060001	84.699997	-8.820000	695.00	0.240187	-0.055571	0.00	0.00	0.00	0.00	0.00	0.00	0.00	0.00	0.75	0.25	0.25	0.00	0.00	0.00	0.00	0.00	-4.273438	0.216309	-0.852051	5.040000	-147.559998	12.250000	13.00	0.000000	0.000000					0.657064	0.000000
0.75	0.00	0.00	0.25	0.25	0.50	1.00	0.25	2.00	8.50	14.50	14.00	10.50	7.25	14.50	3.75	6.25	-0.308105	0.108398	1.059570	40.529999	106.330002	-9.380000	701.00	0.247810	-0.053610	0.25	0.00	0.00	0.00	0.00	0.00	0.00	0.00	0.75	0.50	0.25	0.00	0.00	0.00	0.00	0.00	-4.023438	0.083984	-0.958984	39.340000	-62.299999	16.940001	17.00	0.000000	0.000000					0.787069	0.000000
0.76	0.00	0.00	0.00	0.25	0.50	0.75	0.25	1.75	8.75	14.50	14.25	10.50	7.25	16.00	4.00	6.50	-0.332520	0.116211	1.093750	44.310001	129.919998	-9.660000	712.00	0.255068	-0.047817	0.25	0.25	0.00	0.00	0.00	0.00	0.00	0.00	1.50	0.75	0.25	0.00	0.00	0.25	0.00	0.00	-3.446777	-0.033203	-0.500488	52.220001	30.240000	32.689999	31.00	0.000000	0.000000					0.928592	0.000000
0.77	0.00	0.00	0.00	0.25	0.25	0.50	0.00	1.50	8.75	14.75	14.00	10.25	6.75	17.00	4.50	7.00	-0.358398	0.163574	1.115234	44.099998	154.559998	-11.970000	709.00	0.263116	-0.042551	0.00	0.25	0.25	0.00	0.00	0.00	0.00	0.00	1.25	0.25	0.25	0.00	0.00	0.00	0.00	0.00	-2.810059	-0.046387	0.234863	42.700001	100.309998	53.060001	22.00	0.000000	0.000000	Event	1.00			0.961840	0.000000
0.78	0.00	0.00	0.00	0.00	0.25	0.50	0.00	1.25	8.50	14.25	13.75	10.00	6.25	17.25	5.00	7.25	-0.399902	0.176270	1.157715	40.389999	178.009995	-16.520000	696.00	0.268609	-0.039155	0.25	0.75	0.25	0.25	0.00	0.00	0.00	0.00	1.00	0.00	0.00	0.00	0.00	0.00	0.00	0.00	-4.653320	-0.605469	1.162598	-36.610001	186.199997	66.360001	24.00	0.000000	0.000000					0.645778	0.000000
0.79	0.00	0.00	0.00	0.00	0.25	0.50	0.00	1.25	8.25	14.00	13.50	9.50	5.75	17.25	5.25	7.00	-0.479492	0.196289	1.169922	16.100000	230.440002	-26.110001	682.00	0.270117	-0.036238	1.25	3.75	0.25	1.00	0.25	0.00	0.00	0.00	1.00	0.00	0.00	0.00	0.00	0.00	0.00	0.00	-0.513672	0.145020	-0.636719	-91.629997	271.110016	31.710001	64.00	-0.265795	-0.036076					0.328370	0.000000
0.80	0.00	0.00	0.00	0.00	0.00	0.25	0.00	1.00	8.00	13.75	13.25	9.25	5.25	17.25	5.50	6.75	-0.447266	0.173828	1.272461	13.160000	261.799988	-31.010000	662.00	0.275669	-0.031857	6.00	6.00	1.00	3.50	0.25	0.25	0.00	0.00	0.75	0.00	0.00	0.00	0.00	0.00	0.00	0.00	-0.052734	-0.586426	0.922363	-114.099998	201.809998	14.560000	152.00	-0.331047	-0.043494					0.707221	6.567226
0.81	0.00	0.00	0.00	0.00	0.00	0.00	0.00	0.75	7.75	13.50	12.50	8.50	4.50	16.75	5.50	6.50	-0.460938	0.175293	1.402832	6.230000	290.010010	-37.099998	628.00	0.280119	-0.024082	13.50	11.75	2.50	6.50	0.25	0.00	0.00	0.00	0.50	0.00	0.00	0.00	0.00	0.00	0.00	0.00	-0.486328	-1.117188	0.723145	-119.139999	213.850006	-13.090000	298.00	-0.359195	-0.040171					0.895791	2.834325
0.82	0.00	0.00	0.00	0.00	0.00	0.00	0.00	0.50	7.25	13.00	12.00	7.50	3.75	15.75	5.50	6.00	-0.651855	0.199707	1.504395	4.410000	317.940002	-44.590000	587.00	0.282828	-0.017982	17.00	16.75	4.75	8.50	0.00	0.25	0.00	0.00	0.25	0.00	0.00	0.00	0.00	0.00	0.00	0.00	-0.203613	-1.049316	1.521484	-113.889999	290.360016	-52.150002	403.00	-0.364201	-0.046668					0.667501	0.820190
0.83	0.00	0.00	0.00	0.00	0.00	0.00	0.00	0.50	6.75	12.50	11.25	6.75	3.00	14.75	5.25	5.50	-0.738770	0.271973	1.392090	7.490000	343.980011	-54.950001	547.00	0.283640	-0.013616	21.00	20.50	6.50	12.00	0.25	0.25	0.00	0.00	0.00	0.00	0.00	0.00	0.00	0.00	0.00	0.00	-1.041992	-0.097168	2.319824	-63.910000	292.600006	-63.490002	515.00	-0.364100	-0.050923					0.444108	0.425643
0.84	0.00	0.00	0.00	0.00	0.00	0.00	0.00	0.25	6.00	12.00	10.50	5.75	2.50	13.25	5.00	4.50	-0.664062	0.285156	1.989746	16.940001	367.220001	-68.110001	495.00	0.285291	-0.007991	23.75	22.00	9.00	13.25	0.50	0.50	0.00	0.00	0.00	0.00	0.00	0.00	0.00	0.00	0.00	0.00	-0.807617	0.023926	1.544434	-31.780001	267.959991	-64.400002	590.00	-0.359573	-0.044974					0.586195	0.747616
0.85	0.00	0.00	0.00	0.00	0.00	0.00	0.00	0.25	5.25	11.25	9.75	4.75	1.75	11.75	4.25	3.25	-0.909180	0.218262	2.089844	-3.570000	387.239990	-71.400002	436.00	0.284461	-0.000621	24.75	22.25	11.50	14.25	2.00	1.00	0.00	0.25	0.25	0.00	0.00	0.00	0.00	0.00	0.00	0.00	-0.452637	0.652832	1.930664	37.170002	264.670013	-41.020000	657.00	-0.345369	-0.040736					0.741693	1.482276
0.86	0.00	0.00	0.00	0.00	0.00	0.00	0.00	0.25	4.50	10.50	8.75	4.00	1.00	10.00	3.50	2.25	-1.023438	0.599609	1.446777	3.710000	407.959991	-69.370003	376.00	0.282870	0.006200	23.75	21.50	13.25	15.00	3.50	2.75	0.00	0.25	0.75	0.00	0.00	0.00	0.00	0.00	0.00	0.00	-0.923828	0.050781	2.572266	-9.730000	223.649994	-41.020000	701.00	-0.328217	-0.041134					0.700409	1.715661
0.87	0.00	0.00	0.00	0.00	0.00	0.00	0.00	0.00	3.50	9.50	7.25	3.00	0.50	8.25	2.75	1.25	-1.203613	0.744141	2.006348	59.360001	430.850006	-68.879997	304.00	0.284907	0.018441	22.25	20.00	13.50	15.00	4.50	3.50	0.25	0.25	0.50	0.00	0.00	0.00	0.00	0.00	0.00	0.00	-0.744141	0.866211	2.595215	-75.180000	163.869995	-33.040001	695.00	-0.321141	-0.042278					1.240930	0.716788
0.88	0.00	0.00	0.00	0.00	0.00	0.00	0.00	0.00	2.75	8.50	6.00	2.00	0.25	6.50	2.25	0.75	-0.953125	0.401367	2.374023	132.229996	431.690002	-69.230003	246.00	0.284284	0.025929	20.50	18.50	13.25	14.50	5.25	4.25	0.25	0.50	0.50	0.00	0.25	0.00	0.00	0.25	0.00	0.25	-0.528809	-0.154785	1.366699	-89.459999	99.540001	-10.430000	684.00	-0.308207	-0.045760					0.751331	1.339416
0.89	0.00	0.00	0.00	0.00	0.00	0.00	0.00	0.00	2.00	6.75	4.25	1.50	0.00	5.25	1.50	0.75	-1.078613	0.238281	2.400879	154.770004	418.600006	-72.940002	186.00	0.286260	0.032563	18.75	17.00	12.75	14.00	5.75	5.00	0.25	0.75	0.00	0.00	0.25	0.00	0.00	0.25	0.00	0.00	-0.202148	-0.324219	1.393066	-48.860001	68.320000	-2.380000	656.00	-0.306093	-0.052419					0.692242	0.698742
0.90	0.00	0.00	0.00	0.00	0.00	0.00	0.00	0.00	1.50	5.50	3.25	1.25	0.25	3.50	1.00	0.50	-0.463867	0.203125	2.531250	160.860001	401.799988	-83.790001	142.00	0.278782	0.022272	17.00	15.50	11.75	13.50	6.25	5.50	0.25	1.00	0.00	0.50	0.50	0.25	0.00	0.00	0.00	0.25	-0.208984	-0.038086	1.006836	-21.210001	45.849998	-5.390000	636.00	-0.292073	-0.058879					1.272141	1.543671
0.91	0.00	0.00	0.00	0.00	0.00	0.00	0.00	0.00	1.00	4.50	2.75	1.00	0.25	2.00	0.75	0.50	-0.216797	0.198242	1.699219	139.369995	404.040009	-102.480003	108.00	0.270619	0.004947	15.25	14.25	11.50	13.25	7.25	6.00	0.25	1.50	0.00	1.00	1.00	0.50	0.50	0.25	0.00	0.50	-0.250000	0.189941	1.055664	-29.750000	36.610001	-4.340000	644.00	-0.266977	-0.066716					1.915118	2.629124
0.92	0.00	0.00	0.00	0.00	0.00	0.00	0.25	0.00	0.75	3.50	1.75	0.75	0.00	1.00	0.50	0.00	-0.148438	0.248047	1.371582	106.330002	441.350006	-122.779999	75.00	0.255771	0.028499	14.25	13.75	11.00	13.00	8.50	6.75	0.50	2.00	0.00	1.50	1.25	0.75	0.50	0.75	0.00	0.50	-0.154785	0.069824	1.061035	-44.450001	30.730000	-4.620000	665.00	-0.246341	-0.069251					2.784129	2.079082
0.93	0.00	0.00	0.00	0.00	0.00	0.00	0.25	0.00	0.25	2.50	1.25	0.50	0.00	0.75	0.00	0.00	-0.375488	0.535156	1.255859	69.160004	467.040009	-134.259995	48.00	0.000000	0.000000	13.25	13.25	10.50	12.50	9.00	7.50	0.50	2.50	0.00	1.75	1.50	1.25	0.75	1.00	0.00	1.00	-0.205566	-0.060547	1.005859	-52.709999	23.309999	-7.280000	675.00	-0.227949	-0.077672					0.000000	2.022793
0.94	0.00	0.00	0.00	0.00	0.00	0.00	0.25	0.00	0.25	2.25	1.00	0.50	0.00	0.75	0.00	0.00	-0.354004	0.359863	2.897949	26.040001	467.809998	-126.489998	44.00	0.000000	0.000000	12.25	11.75	10.25	11.75	10.00	7.75	0.75	2.75	0.00	1.75	1.75	1.50	0.75	1.00	0.00	1.25	-0.202148	0.014648	1.072266	-56.910000	11.970000	-8.120000	669.00	-0.213577	-0.077589					0.000000	1.437258
0.95	0.00	0.00	0.00	0.00	0.00	0.00	0.25	0.00	0.50	2.25	1.25	0.50	0.00	0.75	0.00	0.00	0.130859	0.300781	2.957031	-13.720000	394.940002	-115.709999	49.00	0.000000	0.000000	10.75	10.50	10.00	11.50	11.25	8.00	0.75	3.50	0.00	2.25	2.25	1.75	1.00	1.25	0.25	1.50	-0.253418	0.037598	1.035645	-30.170000	-6.720000	-6.650000	683.00	-0.189466	-0.083484					0.000000	2.482122
0.96	0.00	0.00	0.00	0.00	0.00	0.00	0.25	0.00	0.25	2.00	1.00	0.50	0.00	0.50	0.00	0.00	0.558105	0.453613	3.065918	-51.799999	276.220001	-100.870003	40.00	0.000000	0.000000	9.75	9.75	9.50	11.00	11.75	8.00	1.00	4.00	0.00	2.75	2.50	1.75	1.25	1.50	0.25	1.75	-0.207520	0.013184	1.031250	-21.559999	-7.280000	-4.620000	685.00	-0.172821	-0.085696					0.000000	1.679164
0.97	0.00	0.00	0.00	0.00	0.00	0.00	0.25	0.00	0.25	2.00	1.00	0.25	0.00	0.25	0.00	0.00	0.835938	0.682129	2.387207	-22.260000	-16.799999	-40.040001	36.00	0.000000	0.000000	8.75	8.75	9.25	10.25	12.00	8.00	1.00	4.25	0.75	2.75	3.25	2.00	1.50	1.75	0.25	1.75	-0.212891	0.025391	1.045410	-15.820000	-4.760000	-3.920000	686.00	-0.152163	-0.084346					0.000000	2.070231
0.98	0.25	0.00	0.00	0.00	0.00	0.00	0.25	0.00	0.25	2.00	1.00	0.25	0.00	0.50	0.00	0.00	0.666992	0.508789	1.824219	1.260000	-129.009995	-9.450000	40.00	0.000000	0.000000	8.25	8.00	8.75	9.50	12.25	7.75	1.25	4.50	0.75	3.00	3.75	2.25	1.75	2.00	0.50	1.75	-0.208496	0.002930	1.042969	-11.410000	-0.070000	-3.290000	685.00	-0.135407	-0.084161					0.000000	1.675609
0.99	0.00	0.00	0.00	0.00	0.00	0.00	0.25	0.00	0.25	2.25	0.75	0.00	0.00	0.25	0.00	0.00	0.505371	0.337891	1.440918	1.050000	-199.149994	15.120000	34.00	0.000000	0.000000	7.75	7.50	8.25	8.75	12.25	7.50	1.25	4.25	2.00	4.25	4.75	2.50	1.75	2.00	0.75	2.00	-0.215820	0.007812	1.030273	-8.540000	5.180000	-2.520000	699.00	-0.108651	-0.074772					0.000000	2.835591
1.00	0.00	0.00	0.00	0.00	0.00	0.00	0.25	0.00	0.25	2.00	0.75	0.00	0.00	0.25	0.00	0.00	0.354492	0.263184	1.234375	-19.879999	-242.830002	34.509998	32.00	0.000000	0.000000	7.25	6.75	7.75	8.25	12.00	7.00	1.50	4.25	2.50	5.00	5.00	3.00	2.50	2.25	0.75	2.00	-0.210938	-0.001953	1.039551	-6.440000	10.150000	-1.540000	702.00	-0.088232	-0.072868					0.000000	2.050788
1.01	0.00	0.00	0.00	0.00	0.00	0.00	0.25	0.00	0.00	1.50	0.75	0.00	0.00	0.25	0.00	0.00	0.213379	0.257812	1.133789	-48.509998	-272.440002	50.820000	25.00	0.000000	0.000000	6.50	6.25	7.00	7.50	11.25	6.75	1.25	4.00	3.50	5.50	5.00	4.00	3.25	2.25	0.75	2.25	-0.239258	0.015137	1.022461	-4.340000	13.790000	-0.700000	693.00	-0.066142	-0.074839					0.000000	2.217780
1.02	0.00	0.00	0.00	0.00	0.00	0.00	0.25	0.00	0.00	1.50	0.50	0.00	0.00	0.25	0.00	0.00	0.094238	0.270996	1.088867	-72.940002	-295.260010	64.750000	22.00	0.000000	0.000000	5.50	5.50	6.25	6.75	10.50	6.25	1.50	4.00	4.50	5.75	5.00	4.50	3.50	2.25	0.75	2.25	-0.274902	0.005371	1.008789	-2.170000	16.309999	0.070000	676.00	-0.043971	-0.071522					0.000000	2.241764
1.03	0.00	0.00	0.00	0.00	0.00	0.00	0.25	0.00	0.00	1.50	0.50	0.00	0.00	0.25	0.00	0.00	-0.021973	0.306152	1.057617	-87.779999	-313.179993	76.650002	22.00	0.000000	0.000000	4.75	5.00	5.50	6.00	10.00	5.50	1.25	3.75	5.75	6.00	5.25	4.50	3.50	2.75	0.75	3.00	-0.231445	0.009766	1.006836	-0.560000	17.500000	0.700000	659.00	-0.019742	-0.064100					0.000000	2.534062
1.04	0.00	0.00	0.00	0.00	0.00	0.00	0.25	0.00	0.00	1.25	0.50	0.00	0.00	0.00	0.00	0.00	-0.104980	0.322754	1.003418	-92.330002	-326.480011	86.099998	18.00	0.000000	0.000000	4.00	4.25	5.00	5.25	9.25	5.25	1.25	3.75	6.00	6.00	5.50	4.75	3.75	2.75	0.75	3.00	-0.215820	-0.004395	1.005859	0.420000	18.270000	0.700000	635.00	-0.002492	-0.065615					0.000000	1.731632
1.05	0.25	0.00	0.00	0.00	0.00	0.00	0.25	0.00	0.00	1.25	0.50	0.00	0.00	0.00	0.00	0.00	-0.196777	0.316406	0.966309	-90.580002	-334.459991	93.239998	21.00	0.000000	0.000000	3.00	3.75	4.25	4.75	8.50	4.75	1.25	3.50	6.50	6.50	6.00	5.25	3.75	3.00	1.00	2.75	-0.251953	0.003418	1.010254	0.980000	19.040001	0.350000	617.00	0.022479	-0.063188					0.000000	2.508894
1.06	0.25	0.00	0.25	0.00	0.00	0.00	0.25	0.00	0.00	1.00	0.25	0.00	0.00	0.00	0.00	0.00	-0.249512	0.284668	0.925781	-88.760002	-337.399994	96.809998	19.00	0.000000	0.000000	2.75	3.50	3.50	4.25	7.75	4.25	1.00	3.25	7.00	7.25	6.25	5.00	3.75	3.25	1.25	2.75	-0.236816	0.027832	1.007324	1.120000	19.879999	-0.000000	600.00	0.041214	-0.057980					0.000000	1.944520
1.07	0.00	0.00	0.00	0.00	0.00	0.00	0.25	0.00	0.00	1.00	0.25	0.00	0.00	0.00	0.00	0.00	-0.310059	0.227051	0.937500	-87.779999	-338.100006	97.160004	14.00	0.000000	0.000000	2.50	3.00	2.75	3.50	7.00	4.00	1.00	3.25	7.25	7.50	6.25	5.25	4.00	4.00	1.00	2.75	-0.225586	0.031250	1.023438	0.770000	21.490000	-0.910000	583.00	0.061003	-0.056149					0.000000	1.987365
1.08	0.25	0.00	0.00	0.00	0.00	0.00	0.25	0.00	0.00	1.00	0.25	0.00	0.00	0.00	0.00	0.00	-0.343750	0.220215	0.998047	-84.980003	-338.309998	95.620003	16.00	0.000000	0.000000	2.50	2.75	2.50	3.00	6.50	3.50	1.00	3.00	7.50	8.25	6.50	5.75	3.75	4.25	0.50	3.00	-0.239746	0.023438	1.014160	0.490000	23.940001	-2.100000	574.00	0.073704	-0.049807					0.000000	1.419546
1.09	0.25	0.00	0.25	0.00	0.00	0.00	0.25	0.00	0.00	1.00	0.25	0.00	0.00	0.00	0.00	0.00	-0.378906	0.167480	1.090332	-78.470001	-340.480011	92.610001	19.00	0.000000	0.000000	2.00	2.50	2.25	2.50	5.75	3.00	0.75	2.75	7.50	8.50	7.00	6.00	3.75	4.25	0.50	3.00	-0.241211	0.025391	0.999023	1.330000	27.580000	-4.060000	552.00	0.090795	-0.050119					0.000000	1.709396
1.10	0.00	0.00	0.25	0.00	0.00	0.00	0.25	0.00	0.00	1.00	0.25	0.00	0.00	0.00	0.00	0.00	-0.440430	0.088379	1.196777	-70.699997	-345.309998	86.940002	16.00	0.000000	0.000000	1.75	2.25	1.75	2.25	4.75	3.00	0.75	2.75	7.75	10.00	7.00	5.75	4.00	4.75	1.00	3.25	-0.256836	0.020996	1.006836	2.100000	29.469999	-4.410000	556.00	0.111868	-0.048069					0.000000	2.117272
1.11	0.00	0.00	0.25	0.00	0.00	0.00	0.25	0.00	0.00	1.00	0.25	0.00	0.00	0.00	0.00	0.00	-0.492676	0.024902	1.299316	-64.820000	-353.010010	77.419998	16.00	0.000000	0.000000	1.25	2.00	1.25	2.00	4.00	2.50	0.50	2.50	7.75	11.00	7.50	5.75	4.00	5.00	1.25	3.25	-0.267578	0.024902	1.003906	3.290000	31.850000	-4.830000	542.00	0.134125	-0.046693					0.000000	2.229936
1.12	0.00	0.00	0.25	0.00	0.00	0.00	0.25	0.00	0.00	1.00	0.25	0.00	0.00	0.00	0.00	0.00	-0.560547	-0.007812	1.382324	-63.420002	-361.690002	64.330002	16.00	0.000000	0.000000	1.25	1.75	1.25	1.50	3.25	2.00	0.50	2.50	8.00	12.00	8.25	6.00	3.75	5.25	1.00	3.25	-0.272461	0.024414	1.000977	4.620000	34.090000	-4.970000	543.00	0.148760	-0.040405	Event	2.00			0.000000	1.592933
1.13	0.00	0.00	0.25	0.00	0.00	0.00	0.25	0.00	0.00	0.75	0.25	0.00	0.00	0.00	0.00	0.00	-0.643066	0.008301	1.468750	-62.230000	-369.320007	50.189999	14.00	0.000000	0.000000	1.00	1.50	1.00	1.25	2.50	2.00	0.50	2.25	8.00	12.25	9.00	6.25	4.00	5.50	1.25	3.50	-0.273438	0.015625	0.985352	6.230000	36.680000	-5.040000	542.00	0.165036	-0.042559					0.000000	1.641740
1.14	0.00	0.00	0.25	0.00	0.00	0.00	0.25	0.00	0.00	1.00	0.00	0.00	0.00	0.00	0.00	0.00	-0.716797	0.013672	1.544922	-59.990002	-374.920013	35.139999	14.00	0.000000	0.000000	0.75	1.75	1.00	1.00	2.00	2.00	0.25	2.00	8.50	13.00	9.25	6.75	3.75	5.75	1.50	3.75	-0.281738	0.011230	0.991699	8.750000	39.480000	-4.830000	550.00	0.175628	-0.039857					0.000000	1.093189
1.15	0.00	0.00	0.25	0.00	0.00	0.00	0.25	0.00	0.00	1.00	0.00	0.00	0.00	0.00	0.00	0.00	-0.776367	0.066895	1.721191	-45.990002	-381.570007	3.430000	14.00	0.000000	0.000000	0.75	1.25	0.75	1.00	1.75	1.25	0.25	2.00	8.75	13.25	10.50	6.75	3.75	5.75	1.25	4.00	-0.285645	-0.022461	1.017578	12.390000	44.029999	-4.270000	550.00	0.188092	-0.036989					0.000000	1.278885
1.16	0.00	0.00	0.25	0.00	0.00	0.00	0.25	0.00	0.00	0.75	0.00	0.00	0.00	0.00	0.00	0.00	-0.811523	0.072266	1.849121	-35.209999	-382.829987	-9.450000	12.00	0.000000	0.000000	0.50	1.25	0.50	1.00	1.50	1.25	0.25	1.75	8.75	13.75	11.00	6.75	3.50	6.25	1.50	4.00	-0.289551	0.012207	0.985352	15.050000	48.580002	-2.800000	552.00	0.197900	-0.033672					0.000000	1.035413
1.17	0.00	0.00	0.00	0.00	0.00	0.00	0.25	0.00	0.00	1.00	0.00	0.00	0.00	0.00	0.00	0.00	-0.856445	0.092285	1.975586	-26.880001	-384.510010	-19.530001	12.00	0.000000	0.000000	0.25	1.25	0.50	1.00	1.25	1.00	0.25	1.75	8.75	13.75	11.50	7.75	4.00	7.00	1.50	4.50	-0.271973	-0.020508	1.079102	24.780001	56.349998	-2.940000	570.00	0.205736	-0.040224					0.000000	1.021420
1.18	0.00	0.00	0.00	0.00	0.00	0.00	0.25	0.00	0.00	1.00	0.00	0.00	0.00	0.00	0.00	0.00	-0.901367	0.144043	2.106934	-19.460001	-386.890015	-26.600000	12.00	0.000000	0.000000	0.75	0.75	0.25	0.75	1.00	1.00	0.00	1.50	9.75	14.25	12.75	7.75	4.00	7.00	1.50	4.50	-0.310547	0.023438	0.971680	20.510000	53.340000	-2.100000	584.00	0.213914	-0.032859					0.000000	1.100622
1.19	0.00	0.25	0.00	0.00	0.00	0.00	0.25	0.00	0.00	1.00	0.00	0.00	0.00	0.00	0.00	0.00	-0.962402	0.202637	2.233887	-9.730000	-389.690002	-29.820000	14.00	0.000000	0.000000	0.75	1.00	0.50	0.50	1.00	1.00	0.00	1.25	9.75	14.25	13.25	8.00	4.00	7.25	1.50	5.00	-0.326172	0.021973	0.962891	18.690001	51.029999	-1.610000	593.00	0.214359	-0.032186					0.000000	0.080630
1.20	0.00	0.00	0.25	0.00	0.00	0.00	0.25	0.00	0.00	1.00	0.25	0.00	0.00	0.00	0.00	0.00	-1.039551	0.244141	2.374023	0.700000	-392.839996	-29.190001	16.00	0.000000	0.000000	0.50	1.00	0.50	0.50	1.00	1.00	0.00	1.25	10.50	14.75	13.75	8.25	3.50	8.00	1.50	5.00	-0.326172	0.025391	0.980957	19.250000	51.590000	-1.260000	612.00	0.219363	-0.025018					0.000000	0.874209
1.21	0.00	0.00	0.25	0.00	0.00	0.00	0.25	0.00	0.00	0.75	0.00	0.00	0.00	0.00	0.00	0.00	-1.170898	0.278809	2.484863	7.910000	-395.220001	-26.530001	12.00	0.000000	0.000000	0.50	0.50	0.25	0.50	0.75	0.75	0.00	1.25	11.00	15.00	14.00	8.50	4.00	8.00	1.50	5.25	-0.343262	0.032715	0.949219	19.879999	51.660000	-1.330000	618.00	0.228153	-0.025432					0.000000	0.879998
1.22	0.00	0.00	0.00	0.00	0.00	0.00	0.25	0.00	0.00	0.75	0.00	0.00	0.00	0.00	0.00	0.00	-1.329590	0.286621	2.482910	13.160000	-396.549988	-22.610001	10.00	0.000000	0.000000	0.25	0.50	0.25	0.00	0.50	0.75	0.00	1.25	10.75	15.25	14.00	9.25	4.00	8.25	1.75	5.50	-0.333496	0.025879	0.962402	20.230000	50.820000	-1.750000	620.00	0.236594	-0.028795					0.000000	0.908628
1.23	0.00	0.00	0.25	0.00	0.00	0.00	0.25	0.00	0.00	0.75	0.00	0.00	0.00	0.00	0.00	0.00	-1.560059	0.292480	2.400391	19.809999	-394.660004	-17.850000	12.00	0.000000	0.000000	0.25	0.75	0.25	0.25	0.50	0.50	0.00	1.25	11.75	15.50	14.50	10.50	4.00	9.00	2.50	6.00	-0.343262	0.030762	0.963379	20.160000	49.490002	-1.960000	665.00	0.237560	-0.028593					0.000000	0.098736
1.24	0.00	0.00	0.25	0.00	0.00	0.00	0.25	0.00	0.00	1.00	0.00	0.00	0.00	0.00	0.00	0.00	-1.833008	0.272949	2.212891	29.750000	-387.170013	-12.390000	14.00	0.000000	0.000000	0.25	0.50	0.25	0.25	0.50	0.50	0.00	1.25	12.00	16.00	15.00	10.75	4.50	10.25	2.75	6.25	-0.372559	0.041504	0.968750	18.760000	49.770000	-1.540000	693.00	0.241955	-0.028107					0.000000	0.442149
1.25	0.00	0.00	0.00	0.00	0.00	0.00	0.25	0.00	0.00	1.00	0.00	0.00	0.00	0.00	0.00	0.00	-3.605957	-0.824707	1.689453	34.509998	-377.929993	-4.270000	12.00	0.000000	0.000000	0.25	0.50	0.25	0.00	0.25	0.50	0.00	1.00	12.75	16.50	15.25	11.50	5.25	11.50	2.75	6.50	-0.286621	0.029297	1.176270	23.870001	51.590000	-1.750000	722.00	0.247468	-0.026099					0.000000	0.586705
1.26	0.00	0.00	0.00	0.00	0.00	0.00	0.25	0.00	0.00	0.75	0.00	0.00	0.00	0.00	0.00	0.00	-3.207520	-0.070801	0.724609	21.280001	-348.390015	6.160000	10.00	0.000000	0.000000	0.25	0.25	0.25	0.00	0.25	0.75	0.00	1.00	13.00	16.75	15.75	13.00	5.25	11.75	3.50	6.75	-0.363770	0.037109	1.017578	19.320000	53.760002	-1.820000	755.00	0.249105	-0.030843					0.000000	0.501825
1.27	0.00	0.00	0.25	0.00	0.00	0.00	0.25	0.00	0.00	0.75	0.00	0.00	0.00	0.00	0.00	0.00	-2.711426	0.463867	1.534668	9.730000	-315.630005	12.880000	12.00	0.000000	0.000000	0.00	0.25	0.25	0.00	0.25	0.50	0.00	1.00	13.25	17.25	16.25	13.25	5.75	13.25	3.50	7.25	-0.400879	0.038086	0.957031	16.379999	56.840000	-2.030000	780.00	0.254021	-0.030138					0.000000	0.496681
1.28	0.00	0.00	0.25	0.00	0.00	0.00	0.25	0.00	0.00	0.75	0.25	0.00	0.00	0.00	0.00	0.00	-2.733887	0.372070	0.763184	-1.050000	-287.489990	16.379999	14.00	0.000000	0.000000	0.00	0.50	0.00	0.00	0.25	0.50	0.00	1.00	13.75	18.00	16.50	13.50	6.00	14.00	3.75	8.00	-0.395020	0.058594	0.964844	15.890000	61.389999	-1.890000	809.00	0.255363	-0.029890					0.000000	0.136422
1.29	0.00	0.00	0.00	0.00	0.00	0.00	0.25	0.00	0.00	0.75	0.00	0.00	0.00	0.00	0.00	0.00	-3.280762	0.512207	0.250488	-7.420000	-252.350006	13.580000	10.00	0.000000	0.000000	0.00	0.25	0.00	0.00	0.25	0.25	0.00	1.00	14.00	18.25	17.00	13.75	6.00	14.50	4.25	8.75	-0.421875	0.062500	1.013672	16.520000	68.669998	-3.150000	828.00	0.259653	-0.029378					0.000000	0.432057
1.30	0.00	0.00	0.00	0.00	0.00	0.00	0.25	0.00	0.00	1.00	0.00	0.00	0.00	0.00	0.00	0.00	-3.703613	0.609863	-0.317871	7.210000	-207.270004	10.850000	12.00	0.000000	0.000000	0.00	0.00	0.00	0.00	0.25	0.50	0.00	0.75	14.25	18.50	17.50	14.00	6.25	15.25	5.00	9.25	-0.414062	0.067383	0.996094	17.290001	79.379997	-4.480000	853.00	0.262919	-0.029091					0.000000	0.327850
1.31	0.00	0.00	0.00	0.00	0.00	0.00	0.25	0.00	0.00	1.00	0.25	0.00	0.00	0.00	0.00	0.00	-3.868164	0.590820	-0.709961	33.389999	-150.220001	16.940001	14.00	0.000000	0.000000	0.00	0.25	0.00	0.00	0.00	0.25	0.00	1.00	14.75	18.75	17.75	14.25	6.50	16.00	5.00	10.25	-0.478516	0.091797	1.057129	16.100000	92.050003	-5.530000	877.00	0.263423	-0.030199					0.000000	0.121753
1.32	0.00	0.00	0.00	0.00	0.00	0.00	0.25	0.00	0.00	0.75	0.00	0.00	0.00	0.00	0.00	0.00	-3.642578	0.430664	-0.844238	50.470001	-76.860001	35.490002	10.00	0.000000	0.000000	0.00	0.50	0.00	0.00	0.00	0.00	0.00	1.00	14.50	18.75	18.00	14.75	6.50	16.50	5.50	10.75	-0.480469	0.074707	1.056152	15.890000	106.540001	-6.790000	891.00	0.264231	-0.032488					0.000000	0.242767
1.33	0.00	0.00	0.25	0.25	0.25	0.00	0.25	0.00	0.00	0.50	0.00	0.00	0.00	0.00	0.00	0.00	-3.152344	0.341797	-0.501465	51.310001	3.710000	61.459999	14.00	0.000000	0.000000	0.00	0.25	0.00	0.00	0.00	0.00	0.00	1.00	14.50	19.00	18.00	15.00	6.75	17.25	5.50	11.50	-0.499023	0.072266	1.076172	15.330000	122.849998	-7.700000	904.00	0.266536	-0.033307			Event	1.00	0.000000	0.244611
1.34	2.00	0.25	0.75	0.50	0.25	0.00	0.25	0.00	0.00	0.00	0.00	0.00	0.00	0.00	0.00	0.00	-2.734375	0.834473	0.822754	-6.370000	348.390015	153.089996	36.00	0.000000	0.000000	0.00	0.00	0.00	0.00	0.00	0.25	0.00	0.75	14.25	18.75	18.00	15.00	6.75	17.25	5.50	11.75	-0.559570	0.056152	1.188477	14.770000	140.490005	-8.260000	898.00	0.268138	-0.033892					0.000000	0.170550
1.35	4.75	3.00	3.00	1.25	0.50	0.00	0.25	0.00	0.00	0.00	0.00	0.00	0.00	0.00	0.00	0.00	-0.832031	0.018066	2.394531	44.660000	338.239990	184.869995	112.00	-0.334201	0.014601	0.00	0.00	0.00	0.00	0.00	0.00	0.00	0.75	14.25	18.50	18.00	14.75	6.50	17.25	5.75	12.25	-0.497559	0.072754	1.086426	13.090000	161.559998	-9.870000	894.00	0.270209	-0.032834					0.000000	0.232583
1.36	9.75	7.75	5.00	4.25	0.75	0.00	0.25	0.00	0.00	0.00	0.00	0.00	0.00	0.00	0.00	0.00	-0.283691	-1.560059	2.009766	40.740002	249.550003	173.180008	240.00	-0.346558	-0.017136	0.00	0.00	0.00	0.00	0.00	0.00	0.00	0.75	14.00	18.25	17.75	14.75	6.25	17.00	6.25	12.25	-0.785156	0.077148	1.408203	16.170000	184.869995	-11.690000	887.00	0.271040	-0.033598					3.405821	0.102672
1.37	18.00	15.50	7.00	6.50	0.75	0.00	0.25	0.00	0.00	0.00	0.00	0.00	0.00	0.00	0.00	0.00	-0.791016	-2.317383	1.063477	-1.540000	256.269989	82.459999	410.00	-0.359994	-0.022452	0.00	0.00	0.00	0.00	0.00	0.00	0.00	0.75	13.75	18.00	17.25	14.50	6.00	16.25	6.25	12.25	-0.153809	-0.051270	1.144043	21.840000	224.490005	-15.190001	869.00	0.270889	-0.034134					1.444937	0.055689
1.38	22.25	19.75	8.00	8.00	0.75	0.00	0.25	0.00	0.00	0.00	0.00	0.00	0.00	0.00	0.00	0.00	-0.685059	-1.704102	1.621582	-17.780001	315.000000	-21.070000	503.00	-0.363122	-0.025647	0.00	0.00	0.00	0.00	0.00	0.00	0.00	0.75	13.50	17.75	17.00	14.25	6.00	15.75	6.25	11.75	-0.836426	0.097656	1.203125	21.139999	248.779999	-23.730000	853.00	0.270461	-0.034625					0.447134	0.072375
1.39	25.50	23.25	10.25	10.00	1.50	0.00	0.25	0.00	0.00	0.00	0.00	0.00	0.00	0.00	0.00	0.00	-0.541992	-0.049805	2.114258	35.000000	302.260010	-71.470001	604.00	-0.358981	-0.026703	0.00	0.00	0.00	0.00	0.00	0.00	0.00	0.50	13.00	17.25	16.75	14.00	5.50	15.00	6.00	10.75	-0.876953	0.298828	2.056641	3.850000	322.420013	-43.189999	820.00	0.270748	-0.032698					0.427350	0.177111
1.40	27.50	25.50	13.25	12.75	2.50	0.00	0.25	0.00	0.00	0.00	0.00	0.00	0.00	0.00	0.00	0.00	-0.237305	1.019531	1.539062	57.959999	284.549988	-84.840004	701.00	-0.352132	-0.028140	0.00	0.00	0.00	0.00	0.00	0.00	0.00	0.50	11.75	16.75	16.00	13.50	5.00	14.00	5.75	9.50	-1.150391	0.162598	1.510254	-7.630000	360.779999	-50.189999	772.00	0.270032	-0.034159					0.699739	0.162707
1.41	26.75	25.00	14.50	14.25	4.25	0.25	0.50	0.00	0.00	0.00	0.00	0.00	0.00	0.00	0.00	0.00	-0.582031	1.582031	2.461914	42.560001	281.049988	-62.090000	738.00	-0.341328	-0.028066	0.00	0.00	0.00	0.00	0.00	0.00	0.00	0.25	10.50	16.00	15.25	12.75	4.50	12.50	5.25	8.50	-0.906250	0.028320	2.282227	-19.180000	385.839996	-58.240002	712.00	0.269747	-0.035099					1.080419	0.109162
1.42	25.00	23.50	15.25	14.75	6.25	0.75	0.50	0.00	0.00	0.00	0.00	0.00	0.00	0.00	0.00	0.00	-0.609375	0.443848	1.942871	3.080000	253.470001	-28.420000	746.00	-0.331378	-0.028112	0.00	0.00	0.00	0.00	0.00	0.00	0.00	0.25	9.25	15.25	14.50	10.75	3.75	10.00	5.00	7.25	-0.984863	0.472656	1.979492	-20.160000	408.940002	-63.560001	636.00	0.268083	-0.034325					0.994994	0.166884
1.43	23.00	21.50	15.25	14.75	7.75	2.25	0.50	0.00	0.00	0.00	0.00	0.00	0.00	0.00	0.00	0.00	-0.391113	-0.145020	1.463379	-14.280000	217.559998	-18.200001	741.00	-0.320781	-0.031296	0.00	0.00	0.00	0.00	0.00	0.00	0.00	0.00	8.25	14.25	13.75	8.50	2.75	8.00	4.25	6.25	-1.054688	0.709961	2.183594	8.820000	440.790009	-65.940002	554.00	0.268178	-0.026508					1.106549	0.781752
1.44	21.25	19.50	15.25	14.50	9.75	3.75	0.75	0.25	0.00	0.00	0.00	0.00	0.00	0.00	0.00	0.00	-0.674316	0.293457	2.385742	-23.450001	179.690002	-32.270000	746.00	-0.306288	-0.033264	0.00	0.00	0.00	0.00	0.00	0.00	0.00	0.00	7.25	13.50	12.25	7.25	2.25	6.25	3.25	5.25	-0.979980	-0.060547	2.659180	48.369999	446.880005	-68.250000	483.00	0.264930	-0.024208					1.462609	0.397929
1.45	19.50	17.50	15.00	14.25	11.50	5.25	1.00	0.50	0.00	0.50	0.00	0.00	0.00	0.50	0.00	0.00	-0.558594	0.289551	1.448730	-12.250000	119.629997	-24.850000	755.00	-0.286188	-0.034301	0.00	0.00	0.00	0.00	0.00	0.00	0.00	0.00	6.25	11.75	9.50	6.00	1.75	5.00	2.25	4.25	-1.511719	0.346680	2.150391	41.299999	435.119995	-73.150002	395.00	0.263334	-0.018554					2.012673	0.587517
1.46	17.75	15.75	14.50	13.75	13.25	5.50	1.00	1.00	0.00	0.75	0.25	0.25	0.00	0.50	0.00	0.00	-0.217285	0.060059	1.124023	-28.770000	108.639999	-15.470000	748.00	-0.270904	-0.036863	0.00	0.00	0.00	0.00	0.00	0.00	0.00	0.00	5.75	9.00	7.00	5.00	1.25	3.00	1.75	3.25	-0.485352	0.499023	2.779297	75.320000	435.820007	-72.660004	308.00	0.260145	-0.013836					1.549740	0.569503
1.47	16.25	14.25	14.00	13.25	14.25	6.00	1.50	1.50	0.25	1.75	0.75	0.50	0.00	1.00	0.00	0.00	-0.413574	0.134277	1.339355	-58.730000	88.550003	-17.920000	763.00	-0.243620	-0.035792	0.00	0.00	0.00	0.00	0.00	0.00	0.00	0.00	5.25	7.00	5.25	3.00	0.75	1.75	1.00	2.25	-0.562500	0.302734	1.821289	97.230003	418.529999	-91.279999	228.00	0.257313	0.009707					2.730461	2.371209
1.48	15.00	13.00	13.75	12.75	15.25	6.00	1.75	2.25	0.50	2.50	0.75	0.50	0.25	1.50	0.25	0.00	-0.291992	0.120117	1.022949	-75.739998	61.459999	-15.400000	774.00	-0.221586	-0.035746	0.00	0.00	0.00	0.00	0.00	0.00	0.00	0.00	4.25	5.50	4.25	1.75	0.25	0.50	0.50	1.25	-0.020996	0.288086	2.523926	78.330002	447.369995	-119.139999	163.00	0.250272	0.028048					2.203384	1.964676
1.49	13.75	11.50	13.50	12.00	15.75	6.25	2.00	3.00	0.75	3.00	1.00	0.50	0.75	2.25	0.50	0.25	-0.172363	0.081055	1.139648	-58.520000	28.139999	-11.900000	784.00	-0.196655	-0.037502	0.00	0.00	0.00	0.00	0.00	0.00	0.00	0.00	2.50	4.00	3.25	1.25	0.00	0.25	0.25	1.00	-0.387695	0.810547	1.610352	37.029999	439.529999	-138.600006	110.00	0.248440	0.016907					2.499318	1.129122
1.50	12.75	9.75	13.00	11.50	15.50	6.50	2.25	3.50	1.00	3.50	1.75	0.75	1.00	2.50	0.25	0.25	-0.259277	0.090820	1.082031	-26.950001	9.940000	-10.570000	779.00	-0.177754	-0.039386	0.00	0.00	0.00	0.00	0.00	0.00	0.00	0.00	1.75	3.50	2.75	1.25	0.00	0.00	0.00	0.75	-0.032715	1.004395	4.011230	8.120000	372.679993	-118.720001	88.00	0.240432	0.000740					1.899419	1.804186
1.51	11.00	8.50	12.50	10.50	14.75	6.25	2.25	4.00	1.50	3.25	2.00	1.00	2.00	3.25	0.25	0.25	-0.218750	0.062500	1.027832	-9.170000	7.770000	-8.540000	758.00	-0.155742	-0.044006	0.00	0.00	0.00	0.00	0.00	0.00	0.00	0.00	2.25	3.00	2.25	1.00	0.00	0.00	0.25	0.50	0.877441	0.953613	3.400391	-13.720000	205.380005	-77.699997	84.00	0.245890	0.031348					2.249192	3.109113
1.52	9.25	7.75	11.75	9.75	14.00	6.00	2.25	4.50	2.00	4.00	2.00	1.50	2.25	3.50	0.50	0.25	-0.233398	0.061523	1.011719	1.050000	15.960000	-5.530000	743.00	-0.132936	-0.047823	0.25	0.00	0.00	0.00	0.00	0.00	0.00	0.00	1.00	2.75	2.25	0.75	0.00	0.00	0.00	0.50	0.820801	0.794922	2.962891	-68.529999	36.610001	-28.910000	66.00	0.218375	-0.002964					2.312359	4.398197
1.53	8.25	7.00	10.75	9.00	13.25	5.75	2.25	5.00	2.75	4.50	2.50	1.75	2.50	4.00	0.50	0.25	-0.220215	0.075195	1.010254	2.800000	19.809999	-4.130000	734.00	-0.110187	-0.048951	0.25	0.00	0.00	0.00	0.00	0.00	0.00	0.00	0.00	2.50	2.00	0.25	0.00	0.00	0.00	0.50	0.593262	0.520508	1.487305	-147.350006	-153.160004	39.060001	46.00	0.000000	0.000000					2.277642	0.000000
1.54	7.00	5.75	9.75	8.25	12.50	5.50	2.00	4.75	3.00	4.50	2.75	2.00	3.25	4.25	0.50	0.50	-0.235840	0.074219	0.995117	3.570000	22.540001	-2.940000	698.00	-0.090788	-0.052871	0.00	0.00	0.00	0.00	0.00	0.00	0.00	0.00	0.00	2.50	1.75	0.25	0.00	0.00	0.00	0.25	0.522949	0.523926	1.165039	-147.419998	-189.979996	52.360001	40.00	0.000000	0.000000					1.979146	0.000000
1.55	6.00	5.00	8.75	7.25	11.75	5.25	2.00	4.50	3.25	4.50	2.75	2.25	3.75	4.75	0.75	0.75	-0.272461	0.064941	0.991211	3.500000	23.309999	-1.960000	668.00	-0.069604	-0.053447	0.00	0.00	0.00	0.00	0.00	0.00	0.00	0.00	0.00	2.25	1.50	0.50	0.00	0.00	0.00	0.25	0.439453	0.528320	1.041504	-124.879997	-218.050003	59.010002	38.00	0.000000	0.000000					2.119159	0.000000
1.56	4.75	4.50	8.00	6.25	11.00	5.25	2.00	4.50	3.75	4.75	3.00	2.50	4.00	4.75	0.75	0.75	-0.232910	0.082031	0.992676	2.730000	22.889999	-1.960000	644.00	-0.049624	-0.054863	0.25	0.00	0.00	0.00	0.00	0.00	0.00	0.00	0.25	2.00	1.50	0.50	0.00	0.00	0.00	0.25	0.349609	0.498535	0.982910	-93.309998	-242.410004	62.580002	41.00	0.000000	0.000000					2.003044	0.000000
1.57	4.25	3.75	7.50	5.75	10.50	5.00	1.75	4.50	4.00	5.50	3.50	2.50	4.25	5.00	0.75	0.75	-0.228027	0.079102	0.992188	1.400000	22.889999	-2.450000	632.00	-0.032078	-0.054662	0.25	0.00	0.00	0.00	0.00	0.00	0.00	0.00	0.25	1.75	1.25	0.50	0.00	0.00	0.00	0.25	0.239258	0.439941	0.962891	-64.470001	-262.079987	64.050003	37.00	0.000000	0.000000					1.754686	0.000000
1.58	3.75	3.25	6.75	5.00	9.75	4.50	1.75	4.50	4.00	5.75	3.50	2.75	4.25	5.00	0.75	0.75	-0.236328	0.077148	0.985352	-0.070000	23.309999	-3.080000	603.00	-0.017484	-0.054989	0.00	0.00	0.00	0.00	0.00	0.00	0.00	0.00	0.25	1.50	1.25	0.25	0.00	0.00	0.00	0.25	0.158203	0.388672	0.984863	-42.980000	-280.209991	64.540001	30.00	0.000000	0.000000					1.459792	0.000000
1.59	3.25	3.00	6.00	4.50	9.00	4.25	1.75	4.25	3.75	6.00	4.00	2.75	4.00	5.25	0.75	0.75	-0.234863	0.080078	0.988281	-1.190000	23.309999	-3.430000	576.00	-0.004025	-0.054485	0.00	0.50	0.00	0.00	0.00	0.00	0.00	0.00	0.25	1.50	1.25	0.00	0.00	0.00	0.00	0.00	0.056152	0.344238	1.061035	-27.650000	-297.709991	65.029999	31.00	0.000000	0.000000					1.346816	0.000000
1.60	3.00	2.50	5.25	4.00	8.50	3.75	1.50	4.00	5.00	6.00	4.25	2.75	4.25	5.50	0.75	0.75	-0.232422	0.080566	0.986328	-1.890000	23.170000	-3.710000	563.00	0.016785	-0.046544	0.25	0.25	0.00	0.00	0.00	0.00	0.00	0.00	0.00	1.75	1.50	0.00	0.00	0.00	0.00	0.00	-0.016113	0.295410	1.138672	-16.520000	-317.660004	65.519997	32.00	0.000000	0.000000					2.227349	0.000000
1.61	2.50	2.25	4.75	3.50	7.75	3.25	1.50	3.75	5.50	6.25	4.25	2.75	4.25	5.50	0.75	0.75	-0.226562	0.075195	0.993164	-2.800000	23.799999	-4.480000	540.00	0.033463	-0.040762	0.25	0.00	0.00	0.00	0.00	0.00	0.00	0.00	0.00	1.50	1.00	0.00	0.00	0.00	0.00	0.00	-0.086914	0.244141	1.219727	-9.800000	-339.290009	65.590004	24.00	0.000000	0.000000					1.765217	0.000000
1.62	2.25	2.00	4.25	3.25	7.00	2.75	1.25	3.50	5.25	6.50	4.50	2.75	4.25	5.50	1.00	1.00	-0.221680	0.079590	0.995605	-3.080000	25.410000	-5.110000	516.00	0.047690	-0.042531	0.25	0.25	0.00	0.00	0.00	0.00	0.00	0.00	0.00	1.50	0.75	0.00	0.00	0.00	0.00	0.25	-0.151855	0.190430	1.226074	-6.370000	-360.220001	64.750000	25.00	0.000000	0.000000					1.433692	0.000000
1.63	2.00	1.75	3.75	2.75	6.25	2.50	1.25	3.25	5.25	7.25	4.50	2.75	4.00	6.00	1.00	1.00	-0.231934	0.068359	0.987793	-2.940000	27.299999	-5.810000	499.00	0.065839	-0.035911	0.25	0.00	0.00	0.00	0.00	0.00	0.00	0.00	0.00	1.50	0.75	0.00	0.00	0.00	0.00	0.00	-0.242676	0.150879	1.186035	-3.220000	-375.760010	63.070000	22.00	0.000000	0.000000					1.931864	0.000000
1.64	1.75	1.25	3.25	2.25	5.50	2.00	1.25	2.75	5.75	7.25	4.25	2.75	3.50	6.00	0.75	0.75	-0.250000	0.070312	0.982422	-2.310000	29.049999	-6.650000	462.00	0.083297	-0.020762	0.50	0.00	0.00	0.00	0.00	0.00	0.00	0.00	0.00	1.25	1.00	0.00	0.00	0.00	0.00	0.00	-0.299316	0.099609	1.181152	4.480000	-385.279999	60.200001	24.00	0.000000	0.000000					2.311394	0.000000
1.65	1.25	1.25	2.75	2.00	5.00	1.75	1.00	2.75	5.75	7.00	4.75	2.75	3.50	6.00	1.00	1.00	-0.244629	0.083008	0.982910	-2.800000	30.799999	-7.000000	446.00	0.099905	-0.025982	0.50	0.00	0.00	0.00	0.00	0.00	0.00	0.00	0.00	1.25	0.75	0.00	0.00	0.00	0.00	0.00	-0.373047	0.039551	1.251953	13.230000	-390.250000	54.810001	22.00	0.000000	0.000000					1.740912	0.000000
1.66	1.00	1.25	2.25	1.75	4.25	1.50	1.00	2.25	5.75	7.25	4.75	2.75	3.50	6.00	0.75	1.00	-0.241699	0.083008	0.979492	-2.310000	31.920000	-7.630000	421.00	0.114494	-0.020688	0.25	0.00	0.00	0.00	0.00	0.00	0.00	0.00	0.00	1.00	0.75	0.00	0.00	0.00	0.00	0.00	-0.444824	-0.052246	1.310547	20.860001	-393.399994	46.619999	17.00	0.000000	0.000000					1.551941	0.000000
1.67	1.00	1.00	1.75	1.50	3.50	1.25	0.75	2.00	6.00	7.75	4.50	2.50	3.50	6.25	0.75	1.00	-0.260742	0.088379	0.979980	-1.540000	31.990000	-7.630000	402.00	0.133207	-0.013401	0.25	0.25	0.00	0.00	0.00	0.00	0.00	0.00	0.00	1.00	0.50	0.00	0.00	0.00	0.00	0.00	-0.603516	-0.146484	1.353516	25.270000	-394.170013	35.209999	17.00	0.000000	0.000000					2.008171	0.000000
1.68	1.00	0.75	1.50	1.25	3.00	1.25	0.75	2.00	6.00	8.00	4.75	2.75	3.50	6.75	1.00	1.00	-0.273926	0.067383	0.958008	-0.840000	31.920000	-7.700000	403.00	0.148982	-0.013282	0.25	0.00	0.00	0.00	0.00	0.00	0.00	0.00	0.00	1.00	0.50	0.00	0.00	0.00	0.00	0.00	-0.669434	-0.197754	1.341797	24.570000	-382.480011	7.350000	15.00	0.000000	0.000000					1.577575	0.000000
1.69	0.75	0.75	1.25	1.25	2.75	1.25	0.75	1.75	6.25	8.25	5.00	2.75	3.25	7.00	1.25	1.00	-0.252441	0.066406	0.986816	0.840000	32.830002	-6.580000	402.00	0.161361	-0.007635	0.25	0.00	0.00	0.00	0.00	0.00	0.00	0.00	0.00	1.25	0.50	0.00	0.00	0.00	0.00	0.00	-0.719238	-0.190430	1.407227	26.670000	-370.860016	-6.020000	17.00	0.000000	0.000000					1.360572	0.000000
1.70	0.50	0.75	1.00	1.25	2.25	0.75	0.50	1.50	6.50	9.00	5.50	2.75	3.00	7.25	1.25	1.25	-0.293945	0.079102	0.970215	2.730000	34.090000	-6.650000	397.00	0.180260	-0.001564	0.50	0.25	0.00	0.00	0.00	0.00	0.00	0.00	0.00	1.25	0.75	0.00	0.00	0.00	0.00	0.00	-0.757324	-0.192383	1.501953	28.630001	-359.940002	-18.830000	24.00	0.000000	0.000000			Event	2.00	1.984999	0.000000
1.71	0.50	0.50	1.00	0.75	2.25	0.75	0.50	1.25	6.50	9.25	5.50	2.75	3.00	7.50	1.00	1.50	-0.272949	0.072754	0.933105	10.290000	27.930000	-6.230000	390.00	0.190918	0.005785	0.25	0.25	0.00	0.00	0.00	0.00	0.00	0.00	0.00	1.25	0.75	0.00	0.00	0.00	0.00	0.00	-0.775391	-0.137695	1.569336	28.770000	-349.299988	-31.290001	22.00	0.000000	0.000000					1.294669	0.000000
1.72	0.50	0.50	0.75	0.75	2.00	0.75	0.50	1.25	6.75	9.50	5.75	2.75	3.00	7.50	1.25	1.50	-0.292480	0.070801	0.968262	6.860000	32.970001	-5.320000	395.00	0.197601	0.005983	0.25	0.25	0.00	0.00	0.00	0.00	0.00	0.00	0.00	1.00	0.50	0.00	0.00	0.00	0.00	0.00	-0.776367	-0.048828	1.722656	34.090000	-338.589996	-41.020000	17.00	0.000000	0.000000					0.668567	0.000000
1.73	0.50	0.25	0.50	0.75	1.50	0.50	0.50	1.00	6.75	9.75	6.50	3.25	3.00	8.25	1.25	1.50	-0.296387	0.069824	0.963867	6.580000	35.980000	-4.480000	399.00	0.214371	0.007725	0.50	0.25	0.00	0.00	0.00	0.00	0.00	0.00	0.00	0.75	0.75	0.00	0.00	0.00	0.00	0.25	-0.785156	0.038574	2.017090	47.040001	-334.320007	-46.549999	21.00	0.000000	0.000000					1.686040	0.000000
1.74	0.25	0.50	0.50	0.75	1.50	0.50	0.25	1.00	6.75	10.00	7.00	3.50	3.00	8.75	1.25	1.50	-0.302246	0.083984	0.958984	8.960000	36.540001	-3.710000	408.00	0.217697	0.003339	0.50	0.25	0.00	0.00	0.00	0.00	0.00	0.00	0.00	0.75	0.75	0.00	0.00	0.00	0.00	0.00	-0.813477	0.093750	2.304688	61.389999	-342.019989	-46.480000	19.00	0.000000	0.000000					0.550418	0.000000
1.75	0.25	0.25	0.50	0.50	1.25	0.50	0.25	1.00	7.00	10.25	7.25	3.75	3.00	9.00	1.50	2.00	-0.301758	0.076660	0.958496	10.710000	36.610001	-3.150000	417.00	0.228282	0.003492	0.25	0.25	0.00	0.00	0.00	0.00	0.00	0.00	0.00	1.00	0.75	0.00	0.00	0.00	0.00	0.00	-0.899414	0.171387	2.467285	72.730003	-357.630005	-40.320000	19.00	0.000000	0.000000					1.058637	0.000000
1.76	0.25	0.25	0.50	0.50	1.00	0.25	0.25	0.75	7.25	10.50	8.00	4.25	3.25	9.50	1.50	2.25	-0.315430	0.087891	0.958984	11.550000	37.170002	-3.290000	432.00	0.235559	0.003318	0.25	0.25	0.00	0.00	0.00	0.00	0.00	0.00	0.00	0.75	0.75	0.00	0.00	0.00	0.00	0.00	-1.076660	0.250000	2.539062	82.529999	-373.730011	-26.950001	17.00	0.000000	0.000000					0.727959	0.000000
1.77	0.25	0.25	0.50	0.50	1.00	0.25	0.25	0.75	7.25	11.25	8.75	4.50	3.50	10.00	2.00	2.50	-0.320312	0.092773	0.958984	13.230000	38.360001	-3.500000	458.00	0.238458	-0.001092	0.25	0.25	0.00	0.00	0.00	0.00	0.00	0.00	0.00	0.75	1.00	0.00	0.00	0.00	0.00	0.00	-1.324707	0.298340	2.491211	93.870003	-388.429993	-5.880000	19.00	0.000000	0.000000					0.527690	0.000000
1.78	0.00	0.25	0.50	0.50	1.00	0.25	0.25	0.75	7.75	11.75	9.00	4.75	3.25	11.00	2.00	2.75	-0.340820	0.102051	0.944336	14.140000	40.529999	-4.270000	477.00	0.244574	0.003983	0.25	0.25	0.00	0.00	0.00	0.00	0.00	0.00	0.00	0.75	0.75	0.00	0.00	0.00	0.00	0.00	-1.617676	0.290527	2.361816	106.400002	-396.829987	20.440001	17.00	0.000000	0.000000					0.794677	0.000000
1.79	0.00	0.25	0.00	0.25	0.75	0.25	0.25	0.75	7.75	12.00	9.75	5.00	3.75	11.50	2.00	3.00	-0.334961	0.115723	0.955566	15.400000	43.610001	-5.880000	487.00	0.254235	-0.001722	0.25	0.00	0.00	0.00	0.00	0.00	0.00	0.00	0.00	0.75	0.50	0.00	0.00	0.00	0.00	0.00	-1.931641	0.255859	2.185059	117.459999	-394.799988	49.209999	13.00	0.000000	0.000000					1.122009	0.000000
1.80	0.25	0.25	0.00	0.25	0.75	0.25	0.25	0.75	8.00	12.50	10.50	5.75	4.25	12.00	2.50	3.50	-0.330078	0.109863	0.957520	17.150000	46.759998	-6.930000	523.00	0.252713	-0.008481	0.50	0.00	0.00	0.00	0.00	0.00	0.00	0.00	0.00	0.25	0.50	0.00	0.00	0.00	0.00	0.25	-2.250000	0.184082	2.017578	124.599998	-380.660004	78.330002	12.00	0.000000	0.000000					0.692883	0.000000
1.81	0.25	0.00	0.25	0.25	0.50	0.50	0.25	0.75	8.50	13.25	11.00	6.50	4.50	13.25	2.75	4.00	-0.340820	0.098145	0.973145	18.410000	51.660000	-7.140000	562.00	0.255230	-0.009570	0.50	0.00	0.00	0.00	0.00	0.00	0.00	0.00	0.00	0.25	0.50	0.00	0.00	0.00	0.00	0.00	-2.558594	0.080566	1.799805	120.750000	-358.190002	106.750000	11.00	0.000000	0.000000					0.274229	0.000000
1.82	0.00	0.00	0.00	0.00	0.50	0.25	0.00	0.75	8.50	13.50	11.75	7.00	4.50	14.25	3.00	4.75	-0.344238	0.113770	0.974609	20.510000	57.959999	-6.720000	576.00	0.266984	-0.012823	0.50	0.00	0.00	0.00	0.00	0.00	0.00	0.00	0.00	0.50	0.50	0.00	0.00	0.00	0.00	0.00	-3.253418	-0.023438	1.086426	53.619999	-287.839996	145.949997	13.00	0.000000	0.000000					1.219605	0.000000
1.83	0.00	0.00	0.00	0.00	0.50	0.25	0.00	0.75	8.50	13.75	12.25	7.75	4.75	15.50	3.25	5.25	-0.356445	0.098633	0.994141	22.610001	66.570000	-5.810000	604.00	0.268668	-0.016335	0.25	0.00	0.00	0.00	0.00	0.00	0.00	0.00	0.00	0.50	0.75	0.00	0.00	0.00	0.00	0.00	-3.701172	0.007324	0.540039	20.860001	-251.649994	147.210007	13.00	0.000000	0.000000					0.389493	0.000000
1.84	0.00	0.00	0.00	0.00	0.50	0.25	0.00	0.75	8.75	14.25	12.75	8.00	4.75	16.25	4.00	5.50	-0.377441	0.110840	1.014648	25.760000	77.769997	-5.460000	631.00	0.270769	-0.015771	0.00	0.00	0.00	0.00	0.00	0.00	0.00	0.00	0.00	0.50	0.25	0.00	0.00	0.00	0.00	0.00	-4.222168	0.080566	-0.114258	-3.080000	-216.720001	134.820007	7.00	0.000000	0.000000					0.217478	0.000000
1.85	0.00	0.00	0.00	0.00	0.25	0.00	0.00	0.75	9.25	14.75	13.00	8.50	5.00	17.50	4.75	6.25	-0.415039	0.123535	1.042969	27.370001	90.790001	-5.810000	664.00	0.276171	-0.015265	0.25	0.00	0.00	0.00	0.00	0.00	0.00	0.00	0.00	0.50	0.50	0.00	0.00	0.00	0.00	0.25	-4.530273	0.145020	-0.722168	-9.380000	-168.419998	116.410004	12.00	0.000000	0.000000					0.542563	0.000000
1.86	0.00	0.00	0.00	0.00	0.25	0.25	0.00	0.50	9.25	14.75	13.25	8.75	5.00	18.75	5.25	6.50	-0.401367	0.116699	1.072754	27.440001	106.190002	-6.090000	682.00	0.278493	-0.014004	0.25	0.00	0.00	0.00	0.00	0.00	0.00	0.00	0.00	0.50	0.75	0.00	0.00	0.00	0.00	0.00	-4.438477	0.140625	-1.045410	7.840000	-97.230003	100.449997	13.00	0.000000	0.000000					0.264245	0.000000
1.87	0.00	0.00	0.00	0.00	0.25	0.25	0.00	0.75	9.00	14.75	13.25	8.50	4.50	19.25	5.75	6.75	-0.435059	0.164062	1.079590	27.650000	126.000000	-6.930000	685.00	0.279721	-0.013543	0.00	0.00	0.00	0.00	0.00	0.00	0.00	0.00	0.00	0.75	1.00	0.25	0.00	0.00	0.00	0.00	-3.958008	0.083984	-0.915039	35.279999	-8.400000	87.989998	18.00	0.000000	0.000000					0.131222	0.000000
1.88	0.00	0.00	0.00	0.00	0.00	0.25	0.00	0.50	9.00	14.75	13.50	8.50	4.50	19.50	5.75	7.00	-0.452637	0.153320	1.130371	28.630001	167.440002	-9.800000	685.00	0.282743	-0.012368	0.00	0.00	0.00	0.00	0.00	0.00	0.00	0.00	0.00	0.25	0.50	0.00	0.00	0.00	0.00	0.25	-3.352539	0.072754	-0.307617	53.689999	75.459999	77.699997	8.00	0.000000	0.000000					0.324222	0.000000
1.89	0.00	0.00	0.00	0.00	0.00	0.25	0.00	0.50	8.75	14.50	13.25	8.25	4.25	19.50	6.00	7.00	-0.524414	0.173828	1.119629	25.200001	189.979996	-12.530000	676.00	0.284135	-0.011523	0.25	0.25	0.00	0.00	0.00	0.00	0.00	0.00	0.25	0.00	0.00	0.00	0.00	0.00	0.00	0.00	-3.368652	-0.883789	0.794434	-17.219999	266.980011	72.519997	7.00	0.000000	0.000000	Event	1.00			0.162843	0.000000
1.90	0.00	0.00	0.00	0.00	0.00	0.25	0.00	0.50	8.50	14.25	13.00	8.00	3.75	19.00	6.25	6.75	-0.500488	0.205078	1.085449	21.980000	214.970001	-17.920000	661.00	0.285066	-0.009897	0.75	1.50	0.25	0.75	0.00	0.00	0.00	0.00	1.75	0.00	0.00	0.00	0.00	0.00	0.00	0.00	-0.510254	0.411133	-0.000000	-73.010002	325.989990	44.380001	46.00	0.000000	0.000000					0.187351	0.000000
1.91	0.00	0.00	0.00	0.00	0.00	0.00	0.00	0.50	8.25	14.00	12.50	7.50	3.25	18.50	6.50	6.50	-0.578613	0.270508	1.136230	19.110001	239.889999	-26.110001	638.00	0.288085	-0.005884	5.00	5.25	0.75	3.50	0.00	0.00	0.00	0.00	0.75	0.00	0.00	0.00	0.00	0.00	0.00	0.00	-0.131836	0.006348	2.637695	-66.290001	280.559998	39.619999	131.00	-0.330374	-0.048387					0.502163	0.000000
1.92	0.00	0.00	0.00	0.00	0.00	0.00	0.00	0.25	7.75	13.75	12.25	7.00	3.00	17.75	6.50	6.25	-0.725098	0.178711	1.200684	15.750000	269.779999	-33.740002	613.00	0.290031	-0.003819	10.25	10.00	2.50	6.25	0.25	0.25	0.00	0.25	0.50	0.00	0.00	0.00	0.00	0.00	0.00	0.00	-0.513184	-0.789551	0.521973	-71.680000	228.550003	33.599998	260.00	-0.345989	-0.054512					0.283726	1.677308
1.93	0.00	0.00	0.00	0.00	0.00	0.00	0.00	0.25	7.25	13.50	11.75	6.50	2.50	16.75	6.25	5.75	-0.772461	0.278809	1.296875	12.320000	298.899994	-41.230000	581.00	0.290171	-0.001453	16.00	15.50	3.75	8.00	0.25	0.25	0.00	0.25	0.50	0.00	0.00	0.00	0.00	0.00	0.00	0.00	-0.357910	-1.377930	1.022949	-56.840000	284.970001	1.750000	379.00	-0.356461	-0.048302					0.237075	1.217497
1.94	0.00	0.00	0.00	0.00	0.00	0.00	0.00	0.25	6.50	13.00	11.25	5.75	2.00	15.50	5.75	5.00	-0.711914	0.302246	1.315430	6.580000	327.179993	-53.689999	537.00	0.290005	0.001191	18.75	18.75	5.50	10.50	0.25	0.50	0.00	0.00	0.75	0.00	0.00	0.00	0.00	0.00	0.00	0.00	-0.412598	-0.795410	2.495117	-52.990002	329.350006	-54.740002	469.00	-0.353280	-0.047325					0.264860	0.332831
1.95	0.00	0.00	0.00	0.00	0.00	0.00	0.00	0.25	5.75	12.25	10.50	5.25	1.75	13.75	5.50	4.00	-0.949707	0.338867	1.532715	1.330000	348.529999	-61.110001	490.00	0.288959	0.000566	21.25	21.00	7.25	13.00	0.50	0.75	0.00	0.00	1.00	0.00	0.00	0.00	0.00	0.00	0.00	0.00	-0.906250	-0.245605	2.297852	-71.610001	280.839996	-96.459999	555.00	-0.347134	-0.047141					0.121833	0.614911
1.96	0.00	0.00	0.00	0.00	0.00	0.00	0.00	0.25	5.25	11.50	9.75	4.25	1.25	12.00	4.75	3.00	-0.946777	0.287598	2.203613	15.120000	369.739990	-61.459999	435.00	0.287590	0.007323	23.25	21.75	9.75	14.00	0.75	1.50	0.00	0.25	1.00	0.00	0.00	0.00	0.00	0.00	0.00	0.00	-0.642578	0.901855	1.812500	-87.919998	262.640015	-116.059998	623.00	-0.340739	-0.045240					0.689513	0.667070
1.97	0.00	0.00	0.00	0.00	0.00	0.00	0.00	0.00	4.00	10.50	9.00	3.50	0.75	10.00	3.75	2.00	-1.327637	0.421875	1.602051	29.540001	397.809998	-62.439999	365.00	0.287513	0.011394	22.75	20.75	11.50	15.00	2.00	4.25	0.00	0.25	1.00	0.00	0.00	0.00	0.00	0.00	0.00	0.00	-1.019531	0.460938	3.363770	-71.120003	215.600006	-37.660000	673.00	-0.326223	-0.050680					0.407131	1.550260
1.98	0.00	0.00	0.00	0.00	0.00	0.00	0.00	0.00	3.25	9.50	7.50	2.50	0.50	8.25	3.00	1.25	-1.291504	0.471680	2.104492	72.730003	410.829987	-59.080002	301.00	0.286792	0.019011	21.50	19.50	12.75	15.25	3.00	5.25	0.25	0.50	0.50	0.00	0.00	0.00	0.00	0.25	0.00	0.00	-0.725098	0.068848	2.146484	-98.209999	127.540001	-25.270000	688.00	-0.316959	-0.053429					0.765089	0.966278
1.99	0.00	0.00	0.00	0.00	0.00	0.00	0.00	0.00	2.50	8.25	5.75	2.00	0.25	6.50	2.25	0.75	-1.508301	0.388672	2.768555	91.559998	404.110016	-60.270000	239.00	0.285536	0.024037	20.00	18.25	12.50	15.00	4.25	6.50	0.25	1.00	0.25	0.00	0.25	0.25	0.00	0.50	0.00	0.25	-0.236328	-0.073242	1.217773	-89.459999	86.940002	-12.810000	694.00	-0.301438	-0.061711					0.518048	1.759224
2.00	0.00	0.00	0.00	0.00	0.00	0.00	0.00	0.00	1.75	6.75	4.50	1.50	0.00	5.25	1.50	0.50	-0.879395	0.786621	2.440918	140.770004	406.839996	-46.830002	184.00	0.285535	0.029353	18.50	16.75	12.50	14.50	5.50	7.25	0.25	1.25	0.50	0.00	0.25	0.50	0.50	0.75	0.00	0.50	-0.199219	-0.059082	1.263184	-70.209999	63.700001	-11.690000	698.00	-0.282851	-0.064954					0.531596	1.886789
2.01	0.00	0.00	0.00	0.00	0.00	0.00	0.00	0.00	1.25	5.25	3.25	1.25	0.00	3.50	1.25	0.50	-0.256348	0.113770	2.276367	218.470001	377.230011	-55.650002	137.00	0.283372	0.021367	17.00	15.50	12.00	14.25	6.50	8.75	0.25	2.00	0.00	0.25	0.50	1.00	0.25	1.00	0.00	0.75	-0.287598	0.118164	1.173340	-65.169998	46.830002	-11.480000	705.00	-0.266939	-0.076673					0.827317	1.976169
2.02	0.00	0.00	0.00	0.00	0.00	0.00	0.00	0.00	1.00	4.25	2.25	1.00	0.00	2.00	0.75	0.50	0.076660	-0.219238	2.059082	191.940002	376.600006	-87.989998	100.00	0.275083	0.017546	15.50	14.50	11.50	13.75	8.00	9.00	0.25	2.50	0.00	0.75	0.75	1.00	0.75	1.25	0.00	1.25	-0.227539	0.002930	1.121094	-70.559998	32.480000	-9.450000	712.00	-0.246728	-0.081363					0.912749	2.074797
2.03	0.00	0.00	0.00	0.00	0.00	0.00	0.25	0.00	0.75	3.25	1.50	0.75	0.25	1.00	0.50	0.50	-0.500000	-0.161133	1.034668	132.720001	434.070007	-113.120003	75.00	0.258133	0.009289	14.50	13.50	11.50	13.25	9.25	9.50	0.50	3.50	0.00	1.75	1.50	1.50	1.25	1.25	0.00	1.25	-0.205566	-0.020996	1.073730	-76.160004	21.070000	-10.290000	746.00	-0.220476	-0.086428					1.885398	2.673628
2.04	0.00	0.00	0.00	0.00	0.00	0.00	0.25	0.00	0.50	2.50	1.25	0.50	0.00	1.00	0.25	0.00	-0.504883	0.672852	1.461426	46.970001	470.750000	-132.860001	55.00	0.256353	0.039604	13.50	12.50	11.25	13.00	11.25	9.25	0.75	4.25	0.00	2.00	2.00	2.00	1.50	1.75	0.25	1.50	-0.186035	0.019531	1.113770	-67.410004	9.590000	-10.780000	774.00	-0.197488	-0.087211					3.036818	2.300176
2.05	0.00	0.00	0.00	0.00	0.00	0.00	0.25	0.00	0.50	2.25	1.25	0.25	0.00	1.00	0.25	0.00	0.043457	0.433105	3.797363	-10.570000	400.959991	-123.199997	51.00	0.259181	0.053160	12.00	11.25	10.75	12.25	12.00	10.00	0.75	4.25	0.00	2.25	2.75	2.25	1.75	1.50	0.25	1.50	-0.232910	0.025879	1.083984	-49.279999	2.170000	-10.710000	765.00	-0.183439	-0.091646					1.384717	1.473220
2.06	0.00	0.00	0.00	0.00	0.00	0.00	0.25	0.00	0.25	2.00	1.00	0.25	0.00	0.75	0.25	0.00	0.704590	0.759766	3.621582	-26.460001	246.820007	-97.300003	42.00	0.000000	0.000000	10.75	10.00	10.50	11.75	13.00	10.00	1.25	4.50	0.00	3.25	3.75	2.25	1.75	1.75	0.50	1.75	-0.268066	-0.016113	1.069336	-33.110001	-2.310000	-8.540000	779.00	-0.159881	-0.088151					0.000000	2.381520
2.07	0.00	0.00	0.00	0.00	0.00	0.00	0.25	0.00	0.25	1.75	1.00	0.00	0.00	0.75	0.25	0.00	0.748535	0.547852	2.227051	-35.139999	-55.020000	-30.520000	38.00	0.000000	0.000000	9.50	8.75	10.00	11.25	13.75	9.50	1.25	5.00	1.00	3.50	4.00	4.25	2.00	2.00	0.75	1.75	-0.230469	-0.008301	1.038086	-21.770000	-2.940000	-5.880000	797.00	-0.131002	-0.089737					0.000000	2.892324
2.08	0.00	0.00	0.00	0.00	0.00	0.00	0.25	0.00	0.25	1.75	0.75	0.00	0.00	0.50	0.25	0.00	0.627441	0.393066	1.577148	-40.250000	-131.460007	-6.160000	34.00	0.000000	0.000000	8.50	8.00	9.50	10.50	13.75	9.00	1.25	4.75	0.50	3.75	5.00	4.50	2.25	2.50	1.00	2.00	-0.225098	0.003418	1.046387	-15.750000	-0.140000	-5.250000	779.00	-0.115278	-0.091918					0.000000	1.587415
2.09	0.00	0.00	0.00	0.00	0.00	0.00	0.25	0.00	0.00	1.75	0.75	0.00	0.00	0.50	0.00	0.00	0.552734	0.300781	1.265625	-49.700001	-169.960007	10.780000	29.00	0.000000	0.000000	7.75	7.50	8.75	9.25	13.50	8.25	1.50	4.75	1.75	5.00	5.00	3.75	3.00	3.00	1.00	2.00	-0.210449	-0.020508	1.049316	-12.740000	4.060000	-4.830000	772.00	-0.092938	-0.081312					0.000000	2.472988
2.10	0.00	0.00	0.00	0.00	0.00	0.00	0.25	0.00	0.00	1.50	0.75	0.00	0.00	0.50	0.00	0.00	0.481445	0.269043	1.154785	-60.760002	-194.460007	21.980000	26.00	0.000000	0.000000	7.25	6.75	8.25	8.25	13.00	7.75	1.50	4.75	3.25	6.25	4.75	4.50	3.00	3.25	1.00	2.00	-0.223145	-0.013672	1.030762	-9.940000	8.820000	-4.620000	772.00	-0.069888	-0.072313					0.000000	2.474405
2.11	0.00	0.00	0.00	0.00	0.00	0.00	0.25	0.00	0.00	1.50	0.50	0.00	0.00	0.50	0.00	0.00	0.404785	0.254395	1.116699	-69.090004	-216.440002	29.190001	24.00	0.000000	0.000000	6.00	6.00	7.50	7.50	12.25	7.50	1.50	4.50	5.75	6.25	5.25	4.50	2.75	3.25	1.00	2.25	-0.249512	-0.036621	1.009277	-8.050000	13.440001	-4.060000	760.00	-0.044700	-0.060754					0.000000	2.771441
2.12	0.00	0.00	0.00	0.00	0.00	0.00	0.25	0.00	0.00	1.25	0.50	0.00	0.00	0.50	0.00	0.00	0.316406	0.267090	1.109863	-71.120003	-239.680008	33.950001	22.00	0.000000	0.000000	5.50	5.50	6.75	6.50	11.50	6.75	1.25	4.00	6.25	6.25	5.50	5.25	3.25	3.25	1.00	2.25	-0.230469	-0.009766	1.007812	-4.130000	19.740000	-3.010000	731.00	-0.028075	-0.060001					0.000000	1.664224
2.13	0.00	0.00	0.25	0.00	0.00	0.00	0.25	0.00	0.00	1.25	0.50	0.00	0.00	0.75	0.00	0.00	0.226562	0.269531	1.109375	-66.849998	-263.619995	36.610001	26.00	0.000000	0.000000	5.00	5.00	5.75	6.00	10.75	6.00	1.25	3.75	7.00	6.50	5.25	5.25	3.25	4.00	1.00	2.50	-0.230957	-0.025391	1.013672	-3.290000	21.350000	-2.940000	706.00	-0.009422	-0.053155					0.000000	1.986928
2.14	0.00	0.00	0.00	0.00	0.00	0.00	0.25	0.00	0.00	1.00	0.50	0.00	0.00	0.50	0.00	0.00	0.131348	0.243164	1.097656	-59.290001	-287.630005	37.520000	20.00	0.000000	0.000000	4.00	4.25	5.00	5.50	9.75	5.50	1.25	3.50	7.25	7.50	5.75	5.00	3.00	4.25	1.00	2.50	-0.248535	-0.028320	1.006348	-2.870000	21.700001	-1.890000	677.00	0.011907	-0.048129					0.000000	2.191290
2.15	0.00	0.00	0.00	0.00	0.00	0.00	0.25	0.00	0.00	1.00	0.50	0.00	0.00	0.50	0.00	0.00	0.044922	0.232910	1.049316	-51.099998	-309.540009	36.470001	20.00	0.000000	0.000000	3.50	4.00	4.25	4.75	9.00	5.00	1.25	3.25	7.50	7.75	5.75	5.00	3.00	4.25	1.00	2.50	-0.232422	-0.018066	1.007812	-1.890000	21.910000	-0.490000	647.00	0.026687	-0.044593					0.000000	1.519756
2.16	0.00	0.00	0.00	0.00	0.00	0.00	0.25	0.00	0.00	1.25	0.50	0.00	0.00	0.50	0.00	0.00	-0.048340	0.210938	0.996582	-42.209999	-324.309998	35.139999	22.00	0.000000	0.000000	3.25	3.50	3.75	4.00	8.00	4.00	1.00	3.00	8.00	8.75	6.25	5.00	3.25	5.00	1.00	2.75	-0.240234	-0.010742	0.999512	-1.190000	22.330000	-0.070000	632.00	0.051780	-0.037411					0.000000	2.610046
2.17	0.00	0.00	0.00	0.00	0.00	0.00	0.25	0.00	0.00	1.00	0.25	0.00	0.00	0.50	0.00	0.00	-0.115723	0.199707	0.977051	-34.160000	-332.570007	34.790001	18.00	0.000000	0.000000	2.50	2.75	3.00	3.25	7.25	3.50	1.00	2.75	8.50	9.75	6.25	5.25	3.00	5.00	1.00	2.75	-0.252441	-0.002930	1.003418	-0.980000	23.100000	-0.700000	606.00	0.077315	-0.029964					0.000000	2.659893
2.18	0.00	0.00	0.00	0.00	0.00	0.00	0.25	0.00	0.00	1.00	0.25	0.00	0.00	0.50	0.00	0.00	-0.189453	0.188477	1.017090	-27.090000	-335.790009	35.490002	18.00	0.000000	0.000000	2.00	2.25	2.50	2.75	6.50	2.75	1.00	2.50	9.00	10.50	6.25	5.50	2.75	5.00	1.25	3.00	-0.240234	-0.018555	1.006836	-1.190000	24.360001	-1.610000	587.00	0.100700	-0.022327					0.000000	2.459960
2.19	0.00	0.00	0.00	0.00	0.00	0.00	0.25	0.00	0.00	1.00	0.25	0.00	0.00	0.50	0.00	0.00	-0.245605	0.151367	1.104980	-19.320000	-338.170013	37.520000	18.00	0.000000	0.000000	1.75	1.75	2.25	2.50	5.75	2.50	0.75	2.25	9.25	10.75	6.75	5.25	2.75	5.25	1.25	3.00	-0.253906	-0.010254	0.991211	-1.750000	26.670000	-2.660000	570.00	0.116477	-0.018213					0.000000	1.630453
2.20	0.00	0.00	0.00	0.00	0.00	0.00	0.25	0.00	0.00	1.00	0.25	0.00	0.00	0.50	0.00	0.00	-0.313477	0.099121	1.205078	-13.720000	-341.809998	39.480000	18.00	0.000000	0.000000	1.50	1.75	1.75	2.25	5.00	2.00	0.75	1.75	10.00	11.75	6.75	5.50	2.75	5.25	1.25	2.75	-0.260742	-0.005371	1.005371	-1.540000	28.770000	-3.640000	561.00	0.133768	-0.008358					0.000000	1.990300
2.21	0.25	0.00	0.00	0.00	0.00	0.00	0.25	0.00	0.00	1.00	0.25	0.00	0.00	0.50	0.00	0.00	-0.386719	0.049805	1.307617	-11.550000	-346.920013	40.529999	20.00	0.000000	0.000000	1.25	1.75	1.25	1.50	4.00	1.75	0.75	1.50	10.50	12.50	7.25	5.50	2.75	5.75	1.00	2.75	-0.259277	-0.018555	1.002930	-0.770000	30.870001	-3.570000	550.00	0.154836	-0.000469					0.000000	2.249577
2.22	0.25	0.00	0.00	0.00	0.00	0.00	0.25	0.00	0.00	0.75	0.25	0.00	0.00	0.25	0.00	0.00	-0.462402	-0.004395	1.420898	-11.200000	-353.360016	40.389999	16.00	0.000000	0.000000	1.25	1.75	1.00	1.00	3.25	1.50	0.50	1.50	11.25	13.25	7.50	5.50	2.50	6.00	1.00	2.75	-0.269043	-0.018555	0.998047	0.630000	32.830002	-2.800000	548.00	0.169194	0.006514					0.000000	1.596615
2.23	0.25	0.00	0.00	0.00	0.00	0.00	0.25	0.00	0.00	0.75	0.25	0.00	0.00	0.25	0.00	0.00	-0.543457	-0.057129	1.522949	-9.940000	-360.850006	39.130001	16.00	0.000000	0.000000	1.00	1.25	1.00	1.00	2.50	1.25	0.50	1.50	12.00	13.50	7.75	5.50	2.25	6.00	1.00	3.00	-0.265137	-0.013184	1.007812	3.570000	35.630001	-1.680000	544.00	0.182908	0.012481					0.000000	1.495611
2.24	0.00	0.00	0.00	0.00	0.00	0.00	0.25	0.00	0.00	0.75	0.00	0.00	0.00	0.25	0.00	0.00	-0.622070	-0.097656	1.617676	-7.700000	-368.760010	37.240002	12.00	0.000000	0.000000	1.00	1.25	0.75	1.00	2.25	1.25	0.25	1.25	12.00	13.75	8.25	5.25	2.00	6.25	1.00	3.25	-0.273438	-0.012207	1.002441	8.120000	40.459999	-1.750000	539.00	0.189596	0.014852	Event	2.00			0.000000	0.709614
2.25	0.00	0.00	0.00	0.00	0.00	0.00	0.25	0.00	0.00	0.75	0.00	0.00	0.00	0.25	0.00	0.00	-0.772949	-0.180664	1.781250	-7.490000	-380.730011	34.090000	12.00	0.000000	0.000000	1.00	1.25	0.75	1.00	2.00	1.00	0.25	1.00	12.50	14.00	9.50	5.25	2.00	6.25	1.00	3.00	-0.293945	-0.005859	0.985352	10.780000	44.240002	-1.960000	549.00	0.194742	0.019069					0.000000	0.665321
2.26	0.00	0.00	0.00	0.00	0.00	0.00	0.25	0.00	0.00	0.75	0.00	0.00	0.00	0.25	0.00	0.00	-0.822754	-0.177246	1.880371	-9.520000	-383.459991	32.900002	12.00	0.000000	0.000000	0.75	0.75	0.75	1.00	1.75	0.75	0.25	1.25	12.50	14.50	9.75	5.75	2.00	7.25	1.25	3.00	-0.299316	-0.023438	0.960449	12.390000	46.340000	-2.100000	562.00	0.206981	0.017643					0.000000	1.120116
2.27	0.00	0.00	0.00	0.00	0.00	0.00	0.25	0.00	0.00	0.75	0.00	0.00	0.00	0.25	0.00	0.00	-0.871094	-0.170410	2.046875	-10.150000	-384.299988	31.990000	12.00	0.000000	0.000000	0.75	0.75	0.50	0.75	1.25	0.75	0.25	1.25	13.00	14.50	10.75	6.00	2.00	7.25	1.50	3.75	-0.325684	-0.008301	0.975586	13.440001	44.450001	-0.280000	574.00	0.215983	0.014805					0.000000	1.048810
2.28	0.00	0.00	0.00	0.00	0.00	0.00	0.25	0.00	0.00	0.75	0.00	0.00	0.00	0.25	0.00	0.00	-0.916016	-0.139648	2.261230	-9.660000	-385.910004	31.990000	12.00	0.000000	0.000000	0.50	0.75	0.50	0.75	1.00	0.50	0.25	1.25	13.00	15.25	12.25	5.75	2.00	7.50	1.50	4.00	-0.328613	0.000000	0.974121	14.000000	44.029999	-0.350000	588.00	0.222433	0.014037					0.000000	0.649473
2.29	0.00	0.00	0.00	0.00	0.00	0.00	0.25	0.00	0.00	0.75	0.00	0.00	0.00	0.25	0.00	0.00	-0.989258	-0.104980	2.490234	-11.900000	-389.619995	34.230000	12.00	0.000000	0.000000	0.25	0.50	0.25	0.75	1.00	0.50	0.25	1.00	13.00	15.50	13.00	6.25	2.25	7.75	1.50	4.75	-0.326660	0.002441	0.974121	13.020000	42.770000	-1.050000	599.00	0.231086	0.009749					0.000000	0.877924
2.30	0.25	0.00	0.00	0.00	0.00	0.00	0.25	0.00	0.00	0.75	0.00	0.00	0.00	0.25	0.00	0.00	-1.087891	-0.060547	2.691895	-22.120001	-395.779999	38.150002	14.00	0.000000	0.000000	0.50	0.50	0.00	0.50	1.00	0.50	0.25	0.75	13.25	15.75	13.00	6.50	2.25	8.25	1.75	4.75	-0.336426	-0.002441	0.959473	12.670000	41.790001	-1.750000	606.00	0.235756	0.013725					0.000000	0.681450
2.31	0.25	0.00	0.00	0.00	0.00	0.00	0.25	0.00	0.00	0.50	0.00	0.00	0.00	0.25	0.00	0.00	-1.237793	0.027832	2.801758	-39.830002	-402.290009	43.330002	12.00	0.000000	0.000000	0.75	0.50	0.00	0.50	1.00	0.50	0.00	0.75	13.75	15.75	13.50	7.00	2.75	8.75	1.50	4.50	-0.345215	0.012207	0.963867	12.950000	41.090000	-2.170000	623.00	0.234034	0.011147					0.000000	0.310001
2.32	0.00	0.00	0.00	0.00	0.00	0.00	0.25	0.00	0.00	0.50	0.00	0.00	0.00	0.25	0.00	0.00	-1.429688	0.150879	2.810059	-58.869999	-405.649994	49.279999	9.00	0.000000	0.000000	0.50	0.50	0.00	0.75	1.00	0.50	0.00	0.75	14.00	16.50	14.00	7.25	3.00	9.75	1.75	5.25	-0.345703	0.007812	0.970703	12.950000	41.020000	-3.430000	654.00	0.237356	0.008208					0.000000	0.403262
2.33	0.00	0.00	0.00	0.00	0.00	0.00	0.25	0.00	0.00	0.75	0.00	0.00	0.00	0.25	0.00	0.00	-1.660645	0.253906	2.729492	-71.750000	-403.760010	53.900002	12.00	0.000000	0.000000	0.25	0.75	0.00	0.25	0.75	0.50	0.00	0.75	14.25	17.00	14.25	8.00	2.75	11.00	1.75	5.25	-0.356445	0.011230	0.976562	13.300000	43.049999	-4.970000	670.00	0.244683	0.010385					0.000000	0.849239
2.34	0.00	0.00	0.00	0.00	0.00	0.00	0.25	0.00	0.00	0.75	0.00	0.00	0.00	0.00	0.00	0.00	-1.911621	0.301758	2.527344	-76.090004	-397.250000	55.720001	10.00	0.000000	0.000000	0.25	0.50	0.00	0.00	0.75	0.50	0.00	0.75	14.75	17.50	15.00	8.75	2.75	11.75	2.25	5.50	-0.362305	0.004395	0.971680	14.630000	47.389999	-5.810000	699.00	0.250293	0.010121					0.000000	0.561696
2.35	0.00	0.00	0.00	0.00	0.00	0.00	0.25	0.00	0.00	0.75	0.00	0.00	0.00	0.00	0.00	0.00	-2.134766	0.291992	2.166016	-72.379997	-385.630005	53.549999	10.00	0.000000	0.000000	0.25	0.25	0.00	0.00	0.50	0.50	0.00	0.50	15.00	18.25	15.50	9.25	3.25	12.75	2.75	6.25	-0.390625	0.020508	0.981445	16.240000	52.430000	-6.440000	729.00	0.256575	0.008222					0.000000	0.596546
2.36	0.00	0.00	0.00	0.00	0.00	0.00	0.25	0.00	0.00	0.75	0.25	0.00	0.00	0.25	0.00	0.00	-2.239746	0.389160	1.479492	-83.720001	-367.500000	40.459999	14.00	0.000000	0.000000	0.25	0.50	0.00	0.25	0.50	0.25	0.00	0.75	15.50	18.50	16.00	10.00	3.50	13.50	2.75	6.50	-0.385742	0.020508	0.990723	17.639999	58.310001	-7.140000	761.00	0.253725	0.004538					0.000000	0.517487
2.37	0.00	0.00	0.00	0.00	0.00	0.00	0.25	0.00	0.00	0.75	0.25	0.00	0.00	0.00	0.00	0.00	-2.767090	0.847168	1.154785	-112.559998	-336.140015	1.470000	12.00	0.000000	0.000000	0.25	0.50	0.00	0.25	0.50	0.25	0.00	0.75	15.75	19.00	16.50	10.50	3.50	14.75	3.25	7.00	-0.389648	0.016113	1.003418	19.180000	65.730003	-7.140000	793.00	0.256214	0.004007					0.000000	0.254485
2.38	0.00	0.00	0.00	0.00	0.00	0.00	0.25	0.00	0.00	0.75	0.25	0.00	0.00	0.00	0.00	0.00	-3.361328	1.089355	0.520996	-64.470001	-308.839996	-43.189999	12.00	0.000000	0.000000	0.25	0.25	0.00	0.00	0.25	0.00	0.00	0.75	15.75	19.25	16.75	11.75	3.75	15.25	3.25	7.50	-0.408203	0.022949	1.003418	20.440001	74.480003	-7.210000	807.00	0.261594	0.000221					0.000000	0.598024
2.39	0.00	0.00	0.00	0.00	0.00	0.00	0.25	0.00	0.00	0.75	0.25	0.00	0.00	0.00	0.00	0.00	-4.267090	0.874512	-0.290039	56.209999	-283.360016	-67.059998	12.00	0.000000	0.000000	0.25	0.25	0.00	0.00	0.25	0.00	0.00	0.75	16.00	19.50	17.00	12.50	3.75	16.00	3.25	8.25	-0.416016	0.027832	1.003418	19.670000	83.019997	-8.190000	830.00	0.262375	-0.001532					0.000000	0.213216
2.40	0.00	0.00	0.00	0.00	0.00	0.00	0.25	0.00	0.00	1.00	0.25	0.00	0.00	0.00	0.00	0.00	-4.868652	0.409180	-1.139160	126.489998	-225.889999	-55.299999	14.00	0.000000	0.000000	0.25	0.50	0.00	0.25	0.25	0.25	0.00	1.00	16.00	19.75	17.50	12.50	4.00	16.50	4.00	8.25	-0.433105	0.007812	1.031250	17.219999	92.610001	-8.540000	858.00	0.258581	-0.005942					0.000000	0.581718
2.41	0.00	0.00	0.25	0.25	0.00	0.00	0.25	0.00	0.00	0.75	0.25	0.00	0.00	0.00	0.00	0.00	-4.602051	0.072266	-1.392090	97.580002	-120.680000	-17.010000	17.00	0.000000	0.000000	0.00	0.25	0.00	0.00	0.25	0.25	0.00	1.00	15.75	20.25	17.50	13.00	4.00	17.00	4.00	8.50	-0.478516	0.033203	1.065430	13.300000	117.110001	-6.510000	862.00	0.263630	-0.006960					0.000000	0.468171
2.42	0.00	0.00	0.25	0.00	0.00	0.00	0.25	0.00	0.00	0.75	0.25	0.00	0.00	0.00	0.00	0.00	-3.637695	0.078125	-0.851074	25.690001	-0.070000	25.830000	14.00	0.000000	0.000000	0.00	0.25	0.00	0.00	0.25	0.25	0.00	0.75	16.00	20.00	17.75	13.25	3.75	17.50	5.00	9.00	-0.575684	0.067871	1.118164	11.690000	135.240005	-7.840000	877.00	0.266940	-0.005719					0.000000	0.392837
2.43	0.00	0.00	0.25	0.00	0.00	0.00	0.25	0.00	0.00	0.50	0.00	0.00	0.00	0.00	0.00	0.00	-1.986328	0.524902	0.766113	-9.030000	105.910004	75.599998	10.00	0.000000	0.000000	0.00	0.00	0.00	0.00	0.00	0.25	0.00	0.75	16.00	19.75	17.50	13.25	3.75	17.75	5.00	9.50	-0.373047	0.032715	1.460938	12.180000	161.000000	-11.060000	872.00	0.270191	-0.005872					0.000000	0.325402
2.44	0.00	0.00	0.25	0.00	0.00	0.00	0.25	0.00	0.00	0.25	0.00	0.00	0.00	0.00	0.00	0.00	-3.879883	0.623047	0.408203	23.030001	87.080002	85.820000	8.00	0.000000	0.000000	0.25	0.00	0.00	0.00	0.00	0.00	0.00	0.75	16.00	19.75	17.50	13.00	3.75	18.25	5.25	10.00	-0.645996	0.083008	1.166992	8.120000	182.139999	-15.540000	878.00	0.270947	-0.004415			Event	1.00	0.000000	0.149255
2.45	0.50	0.50	0.50	0.25	0.25	0.00	0.25	0.00	0.00	0.25	0.00	0.00	0.00	0.00	0.00	0.00	0.930176	-0.781250	-2.273926	52.709999	209.860001	105.209999	23.00	0.000000	0.000000	0.00	0.00	0.00	0.00	0.00	0.00	0.00	0.50	15.75	19.50	17.25	13.00	3.25	18.50	5.50	10.25	-0.572266	0.194824	1.120605	-0.140000	201.039993	-23.660000	867.00	0.275091	-0.002345					0.000000	0.514717
2.46	3.75	2.75	1.25	1.00	0.50	0.00	0.25	0.00	0.00	0.00	0.00	0.00	0.00	0.00	0.00	0.00	0.166992	0.014648	1.997559	79.940002	286.649994	93.519997	82.00	-0.339952	0.000741	0.00	0.00	0.00	0.00	0.00	0.00	0.00	0.50	15.75	19.50	17.00	12.75	3.25	18.25	5.50	9.75	-0.861328	0.169434	1.018555	-0.630000	227.570007	-34.860001	859.00	0.274880	-0.000844					0.000000	0.137790
2.47	9.25	7.00	4.00	3.25	0.50	0.00	0.25	0.00	0.00	0.00	0.00	0.00	0.00	0.00	0.00	0.00	0.349609	-1.017578	0.833496	92.750000	252.839996	83.019997	209.00	-0.352093	-0.012128	0.00	0.00	0.00	0.00	0.00	0.00	0.00	0.25	15.50	19.25	16.75	12.00	3.00	17.75	5.75	9.50	-0.806152	0.063965	1.110352	-12.600000	260.470001	-47.040001	837.00	0.276662	0.002667					1.769257	0.393746
2.48	17.25	15.00	7.00	6.00	0.75	0.00	0.25	0.00	0.00	0.00	0.00	0.00	0.00	0.00	0.00	0.00	-0.522949	-1.527344	0.517090	100.449997	295.119995	34.580002	395.00	-0.359569	-0.020862	0.00	0.00	0.00	0.00	0.00	0.00	0.00	0.25	15.00	19.00	16.50	11.25	3.00	17.25	5.75	9.25	-0.974609	-0.015137	1.259766	-24.010000	292.250000	-53.480000	816.00	0.276885	0.003100					1.149633	0.048670
2.49	23.50	21.50	8.75	9.50	1.00	0.00	0.25	0.00	0.00	0.00	0.00	0.00	0.00	0.00	0.00	0.00	-0.715332	-0.517090	2.326660	105.279999	363.790009	-51.380001	550.00	-0.361099	-0.029597	0.00	0.00	0.00	0.00	0.00	0.00	0.00	0.00	14.75	18.50	16.00	10.50	2.75	16.50	5.75	8.50	-1.006348	0.093750	1.754883	-29.820000	321.579987	-61.950001	784.00	0.278164	0.007888					0.886755	0.495600
2.50	27.00	26.25	12.25	13.25	2.25	0.00	0.25	0.00	0.00	0.00	0.00	0.00	0.00	0.00	0.00	0.00	-0.924805	-0.093750	2.070312	105.209999	363.720001	-86.309998	696.00	-0.353836	-0.033308	0.00	0.00	0.00	0.00	0.00	0.00	0.00	0.00	14.25	18.00	15.50	9.25	2.50	15.50	5.50	7.75	-0.851562	0.062988	1.823242	-33.110001	359.380005	-67.760002	744.00	0.278120	0.012115					0.815571	0.422691
2.51	27.25	27.75	14.50	15.75	4.50	2.00	0.50	0.00	0.00	0.00	0.00	0.00	0.00	0.00	0.00	0.00	-0.940918	1.336426	2.112305	92.680000	391.720001	-86.940002	796.00	-0.338330	-0.039045	0.00	0.00	0.00	0.00	0.00	0.00	0.00	0.00	13.50	17.25	14.75	8.50	2.25	14.00	5.25	7.25	-1.344238	0.466797	1.839844	-40.110001	398.860016	-70.139999	699.00	0.277428	0.012739					1.653358	0.093237
2.52	25.75	26.00	16.00	17.50	7.25	5.50	0.50	0.00	0.00	0.00	0.00	0.25	0.00	0.00	0.00	0.00	-1.109863	0.829102	2.416504	39.270000	401.799988	-65.940002	858.00	-0.319387	-0.047057	0.00	0.00	0.00	0.00	0.00	0.00	0.00	0.00	12.25	16.25	14.00	7.50	1.75	12.00	4.75	6.25	-1.027344	0.348145	1.915039	-24.360001	414.329987	-63.840000	634.00	0.275964	0.014064					2.056712	0.197396
2.53	23.50	23.50	16.50	17.25	11.25	7.25	0.75	1.25	0.00	0.75	0.25	0.50	0.00	0.00	0.00	0.00	-3.053711	0.377930	6.033691	-119.559998	277.059998	-54.180000	905.00	-0.291023	-0.051301	0.00	0.00	0.00	0.00	0.00	0.00	0.00	0.00	10.00	15.25	13.25	6.75	1.75	9.00	3.75	5.50	-1.607422	0.589844	1.759277	17.710001	432.739990	-66.849998	554.00	0.270873	0.004177					2.868069	1.112015
2.54	21.25	21.00	16.00	16.50	13.25	7.25	1.00	2.00	0.00	1.75	0.50	0.75	0.25	0.25	0.25	0.00	-0.594238	0.113281	1.640625	-125.930000	106.610001	-41.650002	905.00	-0.266841	-0.052072	0.00	0.00	0.00	0.00	0.00	0.00	0.00	0.00	8.25	14.00	11.00	5.75	1.50	7.00	3.00	5.00	-0.752930	0.189941	2.348633	73.360001	424.480011	-63.630001	470.00	0.268950	0.001756					2.419347	0.309196
2.55	19.00	18.25	15.25	15.25	13.75	7.25	1.25	2.50	0.25	2.75	0.75	0.50	0.50	0.50	0.25	0.25	0.039551	-0.190430	0.802734	-96.320000	87.919998	-21.559999	876.00	-0.246226	-0.050658	0.00	0.00	0.00	0.00	0.00	0.00	0.00	0.00	7.00	12.25	8.25	4.75	1.00	5.50	2.25	3.75	-1.510254	0.402344	1.886719	70.980003	442.610016	-71.120003	382.00	0.267808	0.009518					2.066351	0.784609
2.56	16.50	15.50	14.50	14.25	14.75	7.25	1.50	3.25	0.50	3.00	1.00	0.75	0.75	0.75	0.25	0.50	-0.414551	0.117188	1.356445	-96.949997	84.769997	-14.560000	853.00	-0.223916	-0.052847	0.00	0.00	0.00	0.00	0.00	0.00	0.00	0.00	6.00	9.50	6.25	3.25	0.75	3.50	1.75	2.75	-0.541992	0.291504	1.973633	123.830002	419.019989	-89.879997	291.00	0.265668	0.017730					2.241736	0.848544
2.57	14.50	13.25	13.75	13.50	15.25	7.00	2.00	4.25	0.75	3.75	1.75	1.00	2.00	1.25	0.25	0.50	-0.260254	0.095703	1.010254	-64.610001	41.160000	-10.640000	857.00	-0.193264	-0.057817	0.00	0.00	0.00	0.00	0.00	0.00	0.00	0.00	5.25	7.25	4.50	1.75	0.50	2.00	1.00	2.00	-0.104980	0.209961	2.347168	94.080002	443.029999	-125.160004	212.00	0.262274	0.037382					3.105223	1.994338
2.58	12.50	10.75	13.25	12.50	15.50	6.75	2.25	4.50	1.25	4.25	2.00	1.50	2.75	1.50	0.50	0.50	-0.284668	-0.010742	1.063477	-31.500000	18.830000	-10.710000	839.00	-0.166893	-0.057789	0.00	0.00	0.00	0.00	0.00	0.00	0.00	0.00	4.00	5.50	3.25	1.00	0.00	1.25	1.00	1.00	-0.458496	0.552734	1.592285	46.689999	450.660004	-154.210007	151.00	0.264002	0.056717					2.637124	1.941226
2.59	10.25	8.75	12.50	11.25	15.00	6.50	2.50	4.75	1.75	4.50	2.75	2.00	4.00	3.00	0.50	0.50	-0.335938	0.185059	1.062988	-14.560000	12.040000	-12.250000	823.00	-0.132461	-0.059458	0.00	0.00	0.00	0.00	0.00	0.00	0.00	0.00	2.25	4.50	3.00	0.75	0.25	0.75	0.75	0.75	-0.281738	1.020020	4.009277	11.060000	421.540009	-141.050003	114.00	0.258981	0.024025					3.447177	3.307583
2.60	8.50	7.50	11.75	10.25	14.50	6.50	2.50	5.00	3.25	5.25	3.25	2.00	4.25	3.75	0.75	0.75	-0.227539	0.082031	1.004883	-11.830000	10.640000	-11.830000	819.00	-0.101707	-0.055090	0.00	0.00	0.00	0.00	0.00	0.00	0.00	0.00	1.50	3.75	2.50	1.00	0.25	0.75	0.50	0.50	0.832031	1.123535	3.684082	-4.270000	260.470001	-94.360001	94.00	0.256065	0.004955					3.106261	1.929181
2.61	7.50	6.75	10.75	9.25	14.25	6.25	2.50	5.25	4.00	5.75	3.25	2.50	4.50	4.00	0.75	0.75	-0.245117	0.081543	1.015137	-9.800000	9.170000	-9.170000	805.00	-0.082654	-0.054568	0.00	0.25	0.00	0.00	0.00	0.00	0.00	0.00	0.00	3.25	2.25	0.75	0.25	0.50	0.25	0.50	1.006348	1.130371	3.340332	-60.619999	72.519997	-29.750000	67.00	0.230913	-0.058186					1.906077	6.796586
2.62	6.75	6.00	10.00	8.50	13.75	5.75	2.50	5.00	4.25	5.75	3.75	2.75	4.75	4.25	0.75	0.75	-0.208984	0.078125	1.022949	-3.640000	15.050000	-4.410000	780.00	-0.068204	-0.053224	0.00	0.25	0.00	0.00	0.00	0.00	0.00	0.00	0.00	3.00	2.00	0.50	0.00	0.50	0.50	0.50	0.906738	0.858887	2.508789	-118.300003	-84.419998	36.049999	60.00	0.239978	-0.040397					1.451212	1.996521
2.63	5.75	5.25	9.50	7.50	13.00	5.50	2.25	5.00	4.25	5.75	3.75	2.75	4.50	4.50	1.00	1.00	-0.219238	0.067871	0.980469	-0.770000	22.190001	-3.570000	742.00	-0.054831	-0.053603	0.00	0.25	0.00	0.00	0.00	0.00	0.00	0.00	0.25	2.50	1.75	0.25	0.00	0.50	0.25	0.50	0.720703	0.771973	1.738281	-156.660004	-181.789993	83.230003	52.00	0.235630	-0.016773					1.337858	2.402133
2.64	5.00	4.50	8.50	6.75	12.00	5.25	2.25	4.75	4.50	5.75	4.00	2.50	4.50	4.50	1.00	0.75	-0.212891	0.089355	1.009766	2.100000	28.910000	-3.570000	701.00	-0.041891	-0.051391	0.25	0.00	0.25	0.00	0.00	0.00	0.00	0.00	0.00	2.25	1.75	0.25	0.00	0.25	0.25	0.50	0.618652	0.726562	1.286621	-163.100006	-235.970001	110.599998	48.00	0.000000	0.000000					1.312735	0.000000
2.65	4.25	4.00	7.50	6.00	11.25	4.75	2.00	4.50	4.50	5.75	4.00	3.00	4.50	4.25	1.00	0.75	-0.219238	0.071777	0.983398	3.570000	33.110001	-2.940000	659.00	-0.029065	-0.054183	0.25	0.00	0.25	0.00	0.00	0.00	0.00	0.00	0.00	2.25	1.75	0.50	0.00	0.25	0.25	0.50	0.508301	0.671387	1.052246	-141.750000	-269.920013	122.779999	50.00	0.200775	-0.039309					1.193281	0.000000
2.66	3.50	3.50	6.75	5.25	10.25	4.25	1.75	4.25	4.50	5.75	3.75	3.25	4.50	4.25	1.00	0.75	-0.231445	0.094238	0.984375	4.200000	35.420002	-2.240000	615.00	-0.015457	-0.055489	0.00	0.00	0.00	0.00	0.00	0.00	0.00	0.00	0.00	2.00	1.50	0.25	0.00	0.25	0.00	0.25	0.399414	0.564941	0.926270	-104.510002	-292.529999	123.690002	36.00	0.000000	0.000000					1.518995	0.000000
2.67	3.00	3.00	5.75	4.75	9.00	4.00	1.50	4.00	4.50	6.00	4.25	3.00	4.25	4.25	1.00	1.25	-0.221680	0.110352	0.981445	3.640000	36.400002	-2.940000	577.00	0.001360	-0.057078	0.25	0.00	0.00	0.00	0.00	0.00	0.00	0.00	0.50	2.25	1.25	0.25	0.00	0.25	0.00	0.00	0.303223	0.410156	0.878418	-68.529999	-308.140015	116.900002	42.00	0.000000	0.000000					1.689202	0.000000
2.68	2.75	2.50	5.25	4.00	7.75	3.50	1.50	3.50	4.50	6.25	4.25	3.00	4.25	4.50	0.75	1.25	-0.245605	0.112305	0.974121	2.310000	36.189999	-4.900000	539.00	0.016793	-0.051474	0.25	0.25	0.00	0.00	0.00	0.00	0.00	0.00	0.25	2.50	1.00	0.25	0.00	0.50	0.00	0.25	0.207520	0.277344	0.877441	-42.630001	-320.459991	105.070000	44.00	0.000000	0.000000					1.641891	0.000000
2.69	2.50	2.00	4.25	3.50	7.00	3.00	1.25	3.25	4.50	6.25	4.25	3.25	4.00	5.00	1.00	1.25	-0.249512	0.100098	0.982422	0.700000	34.720001	-6.720000	507.00	0.037833	-0.049682	0.25	0.25	0.00	0.00	0.00	0.00	0.00	0.00	0.00	2.00	1.00	0.00	0.00	0.00	0.00	0.25	0.118652	0.197266	0.977051	-22.400000	-333.410004	91.840004	31.00	0.000000	0.000000					2.111657	0.000000
2.70	2.00	1.75	3.75	3.00	6.00	2.50	1.25	3.00	4.75	6.25	4.25	3.25	4.00	5.00	1.00	1.25	-0.244141	0.083496	0.967773	-1.890000	33.670002	-8.680000	478.00	0.056291	-0.046202	0.25	0.25	0.00	0.00	0.00	0.00	0.00	0.00	0.00	1.75	1.00	0.00	0.00	0.00	0.00	0.00	-0.055664	0.000488	1.179199	5.810000	-371.839996	65.309998	28.00	0.000000	0.000000					1.878249	0.000000
2.71	1.75	1.75	3.25	2.50	5.25	2.25	1.00	2.75	4.75	6.50	4.25	3.00	3.75	5.50	1.00	1.50	-0.259766	0.092285	0.976074	-3.850000	32.759998	-10.220000	454.00	0.072665	-0.042131	0.25	0.25	0.00	0.00	0.00	0.00	0.00	0.00	0.00	1.50	1.00	0.00	0.00	0.00	0.00	0.25	-0.163086	-0.051270	1.231934	14.280000	-391.720001	53.130001	27.00	0.000000	0.000000					1.687282	0.000000
2.72	1.50	1.50	2.75	2.00	4.75	2.00	1.00	2.50	4.75	7.00	4.50	3.50	3.75	5.75	1.00	1.50	-0.259766	0.079102	0.969238	-4.060000	30.590000	-10.150000	443.00	0.093366	-0.040166	0.25	0.50	0.00	0.00	0.00	0.00	0.00	0.00	0.50	1.25	1.25	0.00	0.00	0.00	0.00	0.25	-0.224609	-0.110840	1.216309	21.980000	-406.769989	41.369999	34.00	0.000000	0.000000					2.079407	0.000000
2.73	1.25	1.25	2.50	1.75	4.25	1.75	0.75	2.00	5.00	7.00	4.75	3.50	3.75	5.75	1.00	1.25	-0.263672	0.081543	0.969238	-3.850000	28.770000	-9.030000	422.00	0.108730	-0.034375	0.50	0.25	0.00	0.00	0.00	0.00	0.00	0.00	0.25	1.25	1.25	0.00	0.00	0.00	0.00	0.00	-0.317871	-0.134277	1.226562	30.240000	-414.750000	29.680000	31.00	0.000000	0.000000					1.641923	0.000000
2.74	1.00	1.00	2.25	1.50	3.75	1.50	0.75	1.75	5.50	7.25	4.75	3.25	3.50	5.75	1.25	1.25	-0.261230	0.081543	0.969727	-3.010000	27.370001	-7.770000	409.00	0.126802	-0.023384	0.25	0.25	0.00	0.00	0.00	0.00	0.00	0.00	0.25	1.25	0.75	0.00	0.00	0.00	0.00	0.00	-0.431641	-0.177246	1.302246	42.070000	-416.360016	18.830000	24.00	0.000000	0.000000					2.115146	0.000000
2.75	0.75	0.75	1.75	1.25	3.00	1.25	0.75	1.50	5.50	7.25	4.50	3.00	3.25	6.25	1.25	1.75	-0.270508	0.089844	0.963379	-1.540000	26.320000	-7.210000	385.00	0.149866	-0.016258	0.25	0.25	0.00	0.00	0.00	0.00	0.00	0.00	0.50	1.25	0.75	0.00	0.00	0.25	0.00	0.25	-0.511230	-0.267090	1.328613	55.020000	-413.000000	8.470000	30.00	0.000000	0.000000					2.413998	0.000000
2.76	0.75	0.75	1.50	1.25	2.75	1.00	0.75	1.50	5.50	7.75	4.75	3.00	3.25	6.25	1.25	1.75	-0.277344	0.086426	0.964844	0.630000	26.110001	-7.280000	384.00	0.157284	-0.015504	0.00	0.25	0.00	0.00	0.00	0.00	0.00	0.00	0.00	1.25	1.00	0.00	0.00	0.00	0.00	0.25	-0.608887	-0.333496	1.329590	63.209999	-404.040009	0.490000	23.00	0.000000	0.000000					0.745607	0.000000
2.77	0.75	0.75	1.25	1.00	2.50	1.00	0.50	1.25	5.50	7.75	5.00	3.00	3.25	6.25	1.25	1.75	-0.282715	0.080078	0.957520	2.660000	25.830000	-6.860000	373.00	0.166909	-0.014950	0.00	0.25	0.00	0.00	0.00	0.00	0.00	0.00	0.00	1.25	1.00	0.00	0.00	0.00	0.00	0.00	-0.700684	-0.396484	1.410156	62.720001	-389.200012	-4.270000	22.00	0.000000	0.000000					0.964151	0.000000
2.78	0.75	0.50	1.25	0.75	2.25	1.00	0.50	1.25	5.50	8.00	5.25	2.75	3.50	6.50	1.25	1.50	-0.278320	0.083008	0.958984	3.710000	24.500000	-6.300000	371.00	0.175693	-0.012159	0.00	0.25	0.00	0.00	0.00	0.00	0.00	0.00	0.00	1.25	0.50	0.00	0.00	0.25	0.00	0.00	-0.761719	-0.406738	1.609863	54.389999	-376.110016	-5.040000	19.00	0.000000	0.000000			Event	2.00	0.921578	0.000000
2.79	0.75	0.75	1.00	0.75	2.25	0.75	0.50	1.25	5.75	8.25	5.25	3.00	3.75	6.75	1.00	1.75	-0.286621	0.100586	0.949707	3.990000	21.840000	-6.230000	378.00	0.178811	-0.012931	0.25	0.50	0.00	0.00	0.00	0.00	0.00	0.00	0.00	1.00	1.00	0.00	0.00	0.50	0.00	0.00	-0.783691	-0.384277	1.780762	42.910000	-370.089996	-2.310000	27.00	0.000000	0.000000					0.321197	0.000000
2.80	0.75	0.75	1.00	0.75	2.00	0.75	0.50	1.25	5.75	8.75	6.00	3.50	3.50	6.75	1.50	2.00	-0.287109	0.084473	0.940918	-0.420000	15.120000	-7.140000	395.00	0.185492	-0.016957	0.00	0.25	0.00	0.00	0.00	0.00	0.00	0.00	0.00	1.00	1.00	0.00	0.00	0.25	0.00	0.25	-0.798340	-0.316406	1.907715	34.930000	-368.549988	2.520000	22.00	0.000000	0.000000					0.780096	0.000000
2.81	0.50	0.25	1.00	0.75	1.75	0.75	0.50	1.50	5.75	9.25	6.50	4.00	3.75	6.75	1.25	2.00	-0.290527	0.085449	0.949707	-3.430000	10.710000	-7.350000	403.00	0.194597	-0.024539	0.50	0.25	0.00	0.00	0.00	0.00	0.00	0.00	0.00	1.00	1.00	0.00	0.00	0.00	0.00	0.00	-0.823730	-0.235352	2.042480	34.790001	-367.149994	8.960000	24.00	0.000000	0.000000					1.184900	0.000000
2.82	0.50	0.25	0.75	0.75	1.50	0.75	0.50	1.75	6.00	9.75	6.25	4.00	3.75	7.75	1.50	2.00	-0.298340	0.093750	0.947266	-6.230000	6.650000	-7.070000	416.00	0.202991	-0.021907	0.50	0.25	0.00	0.25	0.00	0.00	0.00	0.00	0.50	0.75	1.00	0.00	0.00	0.00	0.00	0.00	-0.888184	-0.187500	2.247559	37.170002	-367.360016	16.240000	29.00	0.000000	0.000000					0.879715	0.000000
2.83	0.50	0.50	0.75	0.50	1.50	0.75	0.50	1.75	6.50	9.75	7.50	4.75	4.25	8.00	1.50	2.25	-0.295410	0.098145	0.945801	-8.610000	3.360000	-6.930000	445.00	0.205099	-0.027805	0.25	0.00	0.00	0.00	0.00	0.00	0.00	0.00	0.25	0.75	0.75	0.00	0.00	0.00	0.00	0.00	-1.005859	-0.114258	2.559570	36.119999	-373.100006	23.940001	18.00	0.000000	0.000000					0.626339	0.000000
2.84	0.50	0.50	0.75	0.50	1.50	0.50	0.50	1.50	7.00	10.50	8.00	5.25	4.75	8.75	1.50	2.25	-0.284180	0.093262	0.954590	-10.150000	0.980000	-7.140000	469.00	0.211711	-0.023736	0.25	0.00	0.00	0.00	0.00	0.00	0.00	0.00	0.00	0.75	0.50	0.00	0.00	0.00	0.00	0.25	-1.168457	0.018066	2.788086	29.750000	-387.589996	31.990000	14.00	0.000000	0.000000					0.776342	0.000000
2.85	0.50	0.50	0.75	0.75	1.50	0.75	0.50	1.50	7.25	11.00	9.00	5.50	5.00	9.00	1.75	2.50	-0.286621	0.082520	0.960449	-10.290000	0.280000	-7.210000	499.00	0.210261	-0.028032	0.25	0.25	0.00	0.00	0.00	0.00	0.00	0.00	0.50	0.75	0.75	0.00	0.00	0.00	0.00	0.00	-1.610352	0.302246	2.794434	28.630001	-419.510010	57.470001	23.00	0.000000	0.000000					0.453432	0.000000
2.86	0.50	0.25	0.75	0.75	1.50	0.75	0.50	1.75	8.00	12.00	9.50	5.50	5.25	9.75	2.00	3.00	-0.289062	0.083984	0.978027	-9.450000	2.450000	-6.720000	533.00	0.215895	-0.025137	0.25	0.00	0.00	0.00	0.00	0.00	0.00	0.00	0.50	0.75	0.50	0.00	0.00	0.00	0.00	0.00	-1.908691	0.249023	2.549316	42.000000	-426.929993	72.519997	19.00	0.000000	0.000000					0.633382	0.000000
2.87	0.50	0.25	0.50	0.50	1.50	0.75	0.50	1.75	8.50	12.50	10.25	6.25	5.50	10.25	2.00	3.00	-0.280762	0.090332	0.969238	-7.350000	6.300000	-6.230000	557.00	0.221706	-0.025578	0.25	0.00	0.00	0.00	0.00	0.00	0.00	0.00	0.00	0.75	0.50	0.00	0.00	0.00	0.00	0.00	-2.238281	0.154297	2.298828	58.590000	-421.610016	83.790001	13.00	0.000000	0.000000					0.582787	0.000000
2.88	0.25	0.50	0.50	0.50	1.50	0.50	0.50	1.75	9.00	13.00	10.50	7.00	5.50	11.25	2.00	3.25	-0.292480	0.086914	0.972656	-5.250000	10.850000	-5.950000	582.00	0.226326	-0.023566	0.25	0.00	0.00	0.00	0.00	0.00	0.00	0.00	0.00	0.75	0.25	0.00	0.00	0.00	0.00	0.00	-2.489746	0.047852	1.988281	65.519997	-402.220001	91.489998	11.00	0.000000	0.000000					0.503971	0.000000
2.89	0.50	0.50	0.50	0.25	1.25	0.50	0.50	1.75	9.50	13.75	11.50	7.25	6.00	12.00	2.00	3.75	-0.296875	0.083496	0.982910	-3.220000	16.450001	-5.530000	614.00	0.229482	-0.023314	0.00	0.00	0.00	0.00	0.00	0.00	0.00	0.00	0.25	0.75	0.50	0.00	0.00	0.00	0.00	0.00	-2.862305	0.042969	1.750977	54.320000	-374.989990	91.910004	14.00	0.000000	0.000000					0.316537	0.000000
2.90	0.50	0.25	0.50	0.25	1.25	0.50	0.50	1.75	9.50	14.50	12.25	8.00	6.25	12.75	2.50	4.25	-0.291016	0.094238	0.985840	-0.350000	23.870001	-4.900000	645.00	0.234298	-0.026756	0.00	0.00	0.00	0.00	0.00	0.00	0.00	0.00	0.25	0.75	0.50	0.00	0.00	0.00	0.00	0.00	-3.344727	0.003418	1.286621	52.290001	-347.690002	83.160004	14.00	0.000000	0.000000					0.591964	0.000000
2.91	0.50	0.25	0.25	0.25	1.25	0.50	0.25	1.75	10.00	15.00	12.75	8.50	6.25	13.75	2.75	4.75	-0.288574	0.086914	1.013184	3.500000	33.529999	-4.620000	670.00	0.239675	-0.026736	0.00	0.00	0.00	0.00	0.00	0.00	0.00	0.00	0.25	0.75	0.25	0.00	0.00	0.00	0.00	0.00	-4.028809	-0.160156	0.585938	70.279999	-320.950012	63.630001	11.00	0.000000	0.000000					0.537749	0.000000
2.92	0.25	0.25	0.25	0.25	1.00	0.50	0.25	1.50	10.25	15.75	13.25	9.00	6.25	15.00	3.25	5.00	-0.290527	0.079590	1.027832	9.940000	47.110001	-4.340000	695.00	0.247318	-0.024208	0.25	0.00	0.00	0.00	0.00	0.00	0.00	0.00	0.75	0.50	0.00	0.00	0.00	0.00	0.00	0.00	-4.817871	-0.414062	-0.275391	86.449997	-281.260010	34.509998	15.00	0.000000	0.000000					0.804994	0.000000
2.93	0.25	0.00	0.25	0.25	0.75	0.50	0.25	1.50	10.50	16.25	13.50	9.50	6.25	16.00	3.75	5.75	-0.304688	0.090820	1.052734	18.760000	65.800003	-3.780000	720.00	0.253136	-0.024110	0.25	0.00	0.00	0.00	0.00	0.00	0.00	0.00	0.25	0.75	0.25	0.00	0.00	0.00	0.00	0.00	-5.263672	-0.631348	-1.077148	80.500000	-213.500000	3.290000	14.00	0.000000	0.000000					0.581835	0.000000
2.94	0.25	0.00	0.00	0.25	0.75	0.50	0.25	1.25	10.75	16.50	14.00	9.75	6.00	17.00	4.00	6.25	-0.333984	0.109863	1.067871	32.200001	88.129997	-6.650000	735.00	0.258167	-0.020892	0.25	0.00	0.00	0.00	0.00	0.00	0.00	0.00	0.00	0.50	0.75	0.00	0.00	0.00	0.00	0.00	-5.012695	-0.666016	-1.360352	46.619999	-111.650002	-23.309999	13.00	0.000000	0.000000					0.597192	0.000000
2.95	0.00	0.00	0.00	0.25	0.50	0.25	0.25	1.00	10.50	16.50	14.25	9.75	6.00	18.00	4.75	6.50	-0.334961	0.109863	1.111328	39.900002	119.349998	-6.300000	740.00	0.266629	-0.019614	0.00	0.00	0.00	0.00	0.00	0.00	0.00	0.00	0.00	0.50	0.75	0.00	0.00	0.00	0.00	0.00	-4.207520	-0.429199	-0.957520	2.030000	5.810000	-41.720001	11.00	0.000000	0.000000					0.855799	0.000000
2.96	0.00	0.00	0.00	0.00	0.50	0.25	0.00	1.00	10.25	16.25	14.25	9.50	5.75	18.75	5.25	6.75	-0.375977	0.162598	1.145020	45.290001	152.389999	-8.260000	736.00	0.271765	-0.018921	0.25	0.00	0.00	0.00	0.00	0.00	0.00	0.00	0.00	0.75	0.25	0.00	0.00	0.00	0.00	0.00	-3.313477	-0.055664	-0.117188	-24.850000	100.309998	-49.349998	11.00	0.000000	0.000000					0.518270	0.000000
2.97	0.00	0.00	0.00	0.00	0.50	0.25	0.00	0.75	10.25	16.00	14.00	9.25	5.25	19.75	5.75	7.25	-0.426270	0.177246	1.208496	46.830002	182.000000	-12.320000	737.00	0.276384	-0.013620	0.25	0.00	0.00	0.00	0.00	0.00	0.00	0.00	0.00	0.50	0.00	0.00	0.00	0.00	0.00	0.00	-2.526855	0.257812	0.720703	-22.610001	150.360001	-46.200001	7.00	0.000000	0.000000					0.703168	0.000000
2.98	0.00	0.00	0.00	0.00	0.25	0.00	0.00	0.75	9.75	15.75	13.75	9.00	5.00	20.00	6.25	7.00	-0.544434	0.257324	1.288574	29.610001	231.699997	-23.799999	723.00	0.280916	-0.012618	0.00	0.00	0.00	0.00	0.00	0.00	0.00	0.00	0.00	0.25	0.25	0.00	0.00	0.00	0.00	0.00	-1.896484	0.416992	1.267578	-5.110000	158.199997	-34.299999	4.00	0.000000	0.000000					0.464096	0.000000
2.99	0.00	0.00	0.00	0.00	0.00	0.00	0.00	0.75	9.50	15.25	13.50	8.50	4.25	19.75	6.50	7.00	-0.507812	0.150879	1.280762	24.570000	255.919998	-28.139999	702.00	0.284162	-0.009534	0.25	0.50	0.25	0.25	0.00	0.00	0.00	0.00	0.00	0.00	0.00	0.00	0.00	0.00	0.00	0.00	0.438965	0.795898	5.190918	-14.910000	238.490005	-25.760000	11.00	0.000000	0.000000	Event	1.00			0.447704	0.000000
3.00	0.00	0.00	0.00	0.00	0.00	0.00	0.00	0.75	9.00	14.75	13.00	8.00	3.75	19.25	6.25	6.75	-0.543457	0.229980	1.228027	21.840000	279.440002	-35.349998	673.00	0.284960	-0.007522	3.25	3.25	0.50	1.00	0.00	0.00	0.00	0.00	0.75	0.00	0.00	0.00	0.00	0.00	0.00	0.00	-0.401855	0.067383	0.027832	-71.820000	132.160004	-10.360000	75.00	-0.313063	-0.006412					0.216507	0.000000
3.01	0.00	0.00	0.00	0.00	0.00	0.00	0.00	0.50	8.50	14.50	12.25	7.00	3.00	18.50	6.25	6.25	-0.708496	0.303223	1.220703	11.900000	306.880005	-47.389999	634.00	0.288199	0.000352	6.25	6.50	1.00	3.75	0.25	0.00	0.00	0.00	0.50	0.00	0.00	0.00	0.00	0.00	0.00	0.00	-0.380859	-0.409668	0.198730	-97.090004	203.979996	-23.309999	156.00	-0.346480	-0.049318					0.851422	5.438409
3.02	0.00	0.00	0.00	0.00	0.00	0.00	0.00	0.50	8.00	14.00	11.75	6.25	2.50	17.50	6.00	5.50	-0.458496	0.249512	1.507324	3.430000	335.299988	-58.799999	596.00	0.288577	0.004349	12.00	12.50	2.75	6.25	0.25	0.00	0.00	0.00	0.50	0.00	0.00	0.00	0.00	0.00	0.00	0.00	0.134277	-0.061523	0.992188	-77.349998	259.000000	-23.100000	291.00	-0.358172	-0.046832					0.401505	1.195309
3.03	0.00	0.00	0.00	0.00	0.00	0.00	0.00	0.25	7.25	13.25	11.00	5.50	1.75	16.00	5.75	4.75	-0.709473	0.347656	1.560059	-1.820000	362.320007	-64.750000	543.00	0.290965	0.010646	16.00	16.75	3.75	8.75	0.25	0.00	0.00	0.00	0.50	0.00	0.00	0.00	0.00	0.00	0.00	0.00	-0.425293	-0.503906	1.824707	-65.730003	275.799988	-31.290001	391.00	-0.360722	-0.050214					0.673383	0.423541
3.04	0.00	0.00	0.00	0.00	0.00	0.00	0.00	0.25	6.25	12.75	10.50	5.00	1.50	14.00	5.25	3.75	-0.835938	0.376953	1.350098	-4.060000	386.820007	-70.769997	494.00	0.288735	0.008946	20.00	20.50	5.50	11.50	0.25	0.25	0.00	0.00	0.75	0.00	0.00	0.00	0.00	0.00	0.00	0.00	-0.981934	-0.328613	1.675781	-87.709999	259.420013	-56.209999	501.00	-0.355780	-0.049373					0.280403	0.501281
3.05	0.00	0.00	0.00	0.00	0.00	0.00	0.00	0.00	5.50	11.75	9.75	4.25	1.00	12.00	4.50	2.50	-0.911133	0.390137	2.075195	24.780001	405.929993	-72.309998	430.00	0.288869	0.016430	22.50	23.25	8.25	13.75	0.50	0.50	0.00	0.00	1.25	0.00	0.00	0.00	0.00	0.00	0.00	0.00	-0.562500	0.198730	2.166992	-85.540001	283.290009	-71.889999	600.00	-0.346185	-0.045351					0.748539	1.040363
3.06	0.00	0.00	0.00	0.00	0.00	0.00	0.00	0.00	4.50	11.00	8.75	3.25	0.75	10.00	3.75	1.75	-1.130859	0.713867	1.652344	64.190002	427.559998	-72.309998	369.00	0.287122	0.019525	23.75	23.50	12.25	15.25	2.25	3.00	0.00	0.25	0.75	0.00	0.00	0.00	0.00	0.00	0.00	0.00	-1.032715	0.300293	2.895020	-59.010002	286.929993	-54.250000	700.00	-0.333623	-0.048659					0.355457	1.299045
3.07	0.00	0.00	0.00	0.00	0.00	0.00	0.00	0.00	3.50	9.75	7.00	2.50	0.50	8.00	3.00	1.25	-1.176270	0.330078	2.513184	116.620003	426.299988	-69.230003	300.00	0.286312	0.022690	23.75	22.50	14.00	16.50	4.50	5.00	0.00	0.25	0.25	0.00	0.00	0.00	0.00	0.00	0.00	0.00	-0.980469	0.157227	2.517090	-36.119999	223.790009	-26.040001	754.00	-0.324786	-0.051894					0.326699	0.941025
3.08	0.00	0.00	0.00	0.00	0.00	0.00	0.00	0.00	2.50	8.75	5.75	2.00	0.25	6.25	2.00	0.75	-1.500488	0.334961	2.735352	128.100006	407.119995	-78.190002	239.00	0.282633	0.024594	22.50	21.25	14.25	16.25	5.50	5.75	0.00	0.50	0.25	0.00	0.00	0.00	0.00	0.00	0.00	0.00	-0.768066	0.463379	2.399902	-82.809998	117.879997	-21.000000	753.00	-0.317089	-0.053839					0.414196	0.793918
3.09	0.00	0.00	0.00	0.00	0.00	0.00	0.00	0.00	2.00	7.00	4.25	1.50	0.25	4.50	1.50	0.50	-0.593750	0.291016	2.432617	136.710007	405.720001	-85.680000	183.00	0.280371	0.025889	21.00	20.25	14.00	15.75	6.00	6.00	0.00	0.50	0.75	0.00	0.00	0.00	0.00	0.00	0.00	0.00	-0.425781	0.079590	1.348633	-80.220001	61.950001	-9.240000	737.00	-0.308912	-0.052444					0.260624	0.829544
3.10	0.00	0.00	0.00	0.00	0.00	0.00	0.00	0.00	1.50	5.50	3.25	1.25	0.00	3.00	1.00	0.50	-0.372070	0.386230	1.588867	159.880005	412.440002	-98.419998	136.00	0.276722	0.024696	19.75	18.75	13.75	15.25	6.25	6.25	0.25	0.50	0.00	0.00	0.00	0.00	0.00	0.00	0.00	0.00	-0.074707	-0.159668	1.026367	-55.020000	60.270000	-2.940000	708.00	-0.309689	-0.055203					0.383951	0.286626
3.11	0.00	0.00	0.00	0.00	0.00	0.00	0.25	0.00	1.50	4.50	2.50	1.00	0.00	2.00	0.75	0.50	-0.250977	0.147461	1.716797	171.149994	430.290009	-120.260002	113.00	0.267019	0.034713	18.75	17.25	13.25	14.75	6.75	7.25	0.25	0.75	0.50	0.00	0.00	0.00	0.00	0.00	0.00	0.25	-0.255859	0.042969	1.047852	-34.090000	52.709999	-5.390000	702.00	-0.297099	-0.056691					1.394558	1.267752
3.12	0.00	0.00	0.00	0.00	0.00	0.00	0.25	0.00	1.00	3.50	1.75	0.75	0.25	1.00	0.25	0.25	-0.468750	-0.099121	1.944824	163.729996	445.549988	-154.279999	79.00	0.251027	0.023768	17.50	16.25	13.00	14.50	7.75	8.50	0.25	1.25	0.00	0.25	0.25	0.25	0.25	0.00	0.00	0.25	-0.272949	0.099609	1.085938	-28.840000	41.299999	-3.150000	708.00	-0.285422	-0.067084					1.937966	1.563238
3.13	0.00	0.00	0.00	0.00	0.00	0.00	0.25	0.00	1.00	3.00	1.50	0.50	0.25	0.50	0.25	0.25	-0.599609	0.774414	2.610840	130.479996	458.220001	-182.350006	67.00	0.245285	0.028062	16.25	15.25	12.25	14.25	8.50	9.00	0.25	2.00	0.00	0.50	0.50	0.50	0.25	0.00	0.00	0.50	-0.238281	0.010254	1.038574	-35.910000	36.259998	-2.940000	709.00	-0.270526	-0.075027					0.717009	1.688081
3.14	0.00	0.00	0.00	0.00	0.00	0.00	0.25	0.00	1.00	2.75	1.75	0.50	0.00	0.50	0.00	0.25	-0.030762	0.543945	3.000488	115.220001	383.739990	-187.039993	63.00	0.241231	0.040028	15.00	14.50	12.00	14.00	9.25	9.00	0.25	2.25	0.00	1.00	1.00	0.75	0.50	0.00	0.00	0.75	-0.242188	0.098145	1.032715	-49.000000	23.799999	-5.880000	712.00	-0.254908	-0.078702					1.263480	1.604515
3.15	0.00	0.00	0.00	0.00	0.00	0.00	0.25	0.00	0.75	2.75	1.75	0.50	0.00	0.75	0.25	0.25	0.437988	0.749023	3.024414	75.809998	261.660004	-164.220001	64.00	0.251185	0.029608	14.25	13.75	11.75	13.75	10.50	9.00	0.50	2.75	0.00	1.25	1.25	0.75	0.75	0.00	0.00	1.00	-0.285156	-0.067383	1.031250	-56.070000	17.360001	-6.930000	724.00	-0.241474	-0.079897					1.441042	1.348716
3.16	0.00	0.00	0.00	0.00	0.00	0.00	0.25	0.00	0.75	2.50	1.50	0.25	0.00	0.50	0.25	0.25	0.701172	0.747559	2.103027	-42.349998	-0.840000	-59.430000	55.00	0.249134	0.042192	13.50	13.00	11.50	13.50	11.50	10.25	0.50	3.50	0.00	1.50	1.50	1.25	1.00	0.75	0.00	1.25	-0.197754	-0.034668	1.052734	-52.709999	8.050000	-7.350000	754.00	-0.220894	-0.086485					1.274948	1.964378
3.17	0.00	0.00	0.00	0.00	0.00	0.00	0.25	0.00	0.75	2.25	1.25	0.25	0.00	0.25	0.25	0.25	0.596191	0.656738	1.491211	-84.699997	-88.690002	-7.140000	49.00	0.000000	0.000000	13.50	12.00	11.25	13.25	12.50	10.25	0.75	4.00	0.00	3.50	2.00	1.50	1.00	1.00	0.00	1.50	-0.255859	0.009766	1.022949	-38.849998	1.960000	-6.090000	787.00	-0.198443	-0.082378					0.000000	2.536045
3.18	0.00	0.00	0.00	0.00	0.00	0.00	0.25	0.00	0.75	2.25	1.00	0.00	0.00	0.25	0.00	0.00	0.506348	0.582031	1.048340	-110.250000	-139.860001	30.870001	42.00	0.000000	0.000000	13.00	11.00	10.75	13.00	12.75	9.75	1.00	4.75	0.25	3.75	2.25	1.75	1.25	0.25	0.50	1.75	-0.255859	-0.008301	1.042969	-27.299999	0.630000	-5.250000	790.00	-0.185205	-0.086143					0.000000	1.376233
3.19	0.00	0.00	0.00	0.00	0.00	0.00	0.25	0.00	0.50	2.00	1.00	0.00	0.00	0.50	0.25	0.00	0.429199	0.540527	0.799316	-118.370003	-166.669998	56.349998	41.00	0.000000	0.000000	10.50	9.50	10.25	12.25	12.75	9.50	1.00	4.50	0.75	4.00	3.25	1.75	1.75	0.75	0.50	2.00	-0.236328	-0.005859	1.048828	-19.740000	2.590000	-4.970000	765.00	-0.160534	-0.086695					0.000000	2.243382
3.20	0.00	0.00	0.00	0.00	0.00	0.00	0.25	0.00	0.25	1.75	0.75	0.00	0.00	0.25	0.25	0.00	0.345215	0.509277	0.696777	-112.139999	-180.809998	73.010002	32.00	0.000000	0.000000	8.75	8.50	9.75	11.50	12.50	9.00	1.00	4.50	1.50	4.25	3.75	2.25	1.75	1.00	0.75	2.00	-0.234863	-0.023438	1.047363	-13.650000	6.020000	-4.200000	747.00	-0.138029	-0.085342					0.000000	2.505066
3.21	0.00	0.00	0.00	0.00	0.00	0.00	0.25	0.00	0.25	1.75	0.50	0.00	0.00	0.25	0.25	0.00	0.253418	0.469238	0.703125	-95.760002	-189.490005	83.370003	30.00	0.000000	0.000000	8.00	7.75	9.00	10.25	12.00	8.75	1.25	4.75	1.75	4.75	4.00	2.50	1.75	1.25	0.75	2.00	-0.260742	-0.003418	1.015625	-9.310000	10.150000	-3.220000	729.00	-0.121164	-0.083987					0.000000	1.692019
3.22	0.00	0.25	0.25	0.00	0.00	0.00	0.25	0.00	0.25	1.75	0.50	0.00	0.00	0.25	0.25	0.00	0.184082	0.414062	0.832031	-73.709999	-199.919998	89.180000	34.00	0.000000	0.000000	7.25	6.75	8.00	8.75	11.50	8.00	1.25	4.75	2.25	5.00	4.00	2.75	2.00	1.25	0.75	2.00	-0.305176	-0.059082	0.990234	-6.370000	14.070000	-2.520000	692.00	-0.103680	-0.081897					0.000000	1.600696
3.23	0.00	0.00	0.00	0.00	0.00	0.00	0.50	0.00	0.25	1.50	0.50	0.00	0.00	0.25	0.00	0.00	0.118652	0.349121	1.091797	-54.110001	-219.800003	91.419998	28.00	0.000000	0.000000	6.50	6.00	7.25	7.75	10.75	7.25	1.25	4.25	3.00	5.00	4.50	3.00	2.50	1.25	0.75	2.00	-0.244141	-0.002441	1.003906	-4.270000	16.730000	-2.590000	662.00	-0.084687	-0.078030					0.000000	2.153684
3.24	0.00	0.00	0.00	0.00	0.00	0.00	0.25	0.00	0.25	1.50	0.50	0.00	0.00	0.25	0.00	0.00	0.031738	0.246582	1.383789	-44.939999	-256.690002	90.860001	25.00	0.000000	0.000000	5.75	5.50	6.25	7.00	10.00	6.75	1.00	4.00	3.75	5.50	5.00	3.25	2.75	1.75	0.75	2.00	-0.256348	-0.008301	0.996094	-3.080000	18.900000	-2.730000	642.00	-0.061732	-0.075623					0.000000	2.308078
3.25	0.25	0.00	0.00	0.00	0.00	0.00	0.25	0.00	0.25	1.50	0.50	0.00	0.00	0.25	0.00	0.00	-0.074707	0.196289	1.590332	-48.650002	-309.820007	87.430000	27.00	0.000000	0.000000	5.00	5.00	5.50	6.25	9.50	6.50	1.00	4.00	5.50	6.00	5.25	3.75	3.00	2.25	0.50	2.25	-0.270020	-0.001465	0.993164	-1.470000	20.860001	-3.220000	645.00	-0.034041	-0.067816					0.000000	2.615527
3.26	0.00	0.00	0.00	0.00	0.00	0.00	0.25	0.00	0.00	1.50	0.50	0.00	0.00	0.25	0.00	0.00	-0.231445	0.131348	1.617676	-63.279999	-366.450012	80.220001	22.00	0.000000	0.000000	4.00	4.25	4.75	5.50	8.50	5.75	1.00	3.75	6.00	6.25	5.75	4.25	3.00	2.25	0.50	2.25	-0.270508	-0.020508	0.987793	-0.350000	21.559999	-3.290000	614.00	-0.010033	-0.065857					0.000000	2.676395
3.27	0.00	0.00	0.00	0.00	0.00	0.00	0.25	0.00	0.25	1.25	0.50	0.00	0.00	0.00	0.00	0.00	-0.401367	0.102051	1.453613	-77.699997	-411.670013	69.930000	21.00	0.000000	0.000000	3.50	3.50	3.75	5.00	7.75	5.25	0.75	3.50	6.25	6.50	5.75	5.00	3.25	2.25	0.75	2.25	-0.278809	-0.018066	0.993164	0.840000	21.139999	-2.800000	588.00	0.011810	-0.069015					0.000000	2.207018
3.28	0.25	0.25	0.00	0.00	0.00	0.00	0.25	0.00	0.25	1.00	0.50	0.00	0.00	0.25	0.00	0.00	-0.513672	0.108887	1.175781	-84.349998	-433.860016	56.910000	25.00	0.000000	0.000000	3.00	3.00	3.25	4.00	6.75	4.75	0.75	3.25	6.50	6.75	5.75	5.00	3.25	2.25	0.75	2.50	-0.270508	-0.011230	0.995605	2.100000	20.719999	-2.100000	555.00	0.031875	-0.065413					0.000000	1.853224
